Timestamp,Accelerometer X,Accelerometer Y,Accelerometer Z
mSecs,m/(sec^2),m/(sec^2),m/(sec^2)
2293682.648,-10.28663271,1.202119203,2.105960162
2293692.413,-9.636482365,1.314727579,1.736378932
2293702.179,-9.865351663,1.038527444,1.926372186
2293711.945,-9.711219868,1.159098726,1.954936304
2293721.71,-9.750177169,1.238107201,1.905360037
2293731.476,-9.980433424,1.119133152,1.956657595
2293741.241,-9.790255325,1.234873966,1.743698293
2293751.007,-9.827063649,1.198180394,1.909019717
2293760.773,-9.672036783,1.240541819,2.027090942
2293770.538,-9.749056314,1.32034891,2.017445512
2293780.304,-9.863601839,1.282027091,2.101354547
2293790.07,-9.82876509,1.274777512,1.738875579
2293799.835,-9.788775635,1.357833345,1.891667248
2293809.601,-9.904623448,1.03690695,1.845347476
2293819.366,-9.558253278,1.237339598,1.866979911
2293829.132,-9.634692222,1.158307863,1.915393144
2293838.898,-10.09649896,1.357771316,1.888565824
2293848.663,-9.865662115,1.317906539,1.895326929
2293858.429,-9.978550549,1.242898901,2.144945066
2293868.195,-9.750044118,1.118373303,1.918665147
2293877.96,-9.865484714,1.158261342,1.913067076
2293887.726,-9.827825669,1.156656354,1.832817722
2293897.491,-9.711800454,1.317937553,1.896877641
2293907.257,-9.788106348,1.11917192,1.958595985
2293917.023,-9.86682732,1.275576128,1.778806417
2293926.788,-9.902740574,1.160672699,2.033634947
2293936.554,-9.750221519,1.2780185,1.900925
2293946.32,-9.635006707,1.077678894,1.883944702
2293956.085,-9.711756104,1.278026254,1.901312678
2293965.851,-9.557850093,1.238145969,1.907298427
2293975.616,-9.827736968,1.076833756,1.841687795
2293985.382,-9.827019299,1.158269095,1.913454754
2293995.148,-10.01813682,1.160649438,2.032471913
2294004.913,-9.520235398,1.276452281,1.822614035
2294014.679,-9.942459895,1.198157134,1.907856683
2294024.445,-9.902873625,1.280406597,2.020329836
2294034.21,-9.710905383,1.239727695,1.986384747
2294043.976,-9.864097757,1.001035255,2.051762772
2294053.741,-9.596271158,1.198226916,1.911345786
2294063.507,-9.787433029,1.240518558,2.025927907
2294073.273,-9.903994479,1.198164887,1.908244361
2294083.038,-9.827781319,1.116745055,1.837252758
2294092.804,-9.864186458,1.080857854,2.042892698
2294102.57,-9.7884168,1.398551015,1.927550728
2294112.335,-9.596045374,1.358678483,1.933924155
2294122.101,-9.827019299,1.158269095,1.913454754
2294131.866,-10.05870686,1.236432432,1.82162158
2294141.632,-9.94290743,1.237262063,1.86310313
2294151.398,-9.865529064,1.198172641,1.908632039
2294161.163,-9.711667403,1.198203655,1.910182751
2294170.929,-9.711264218,1.199010025,1.950501268
2294180.695,-9.712159289,1.277219883,1.860994162
2294190.46,-9.790299675,1.274785265,1.739263257
2294200.226,-9.711711754,1.238114954,1.905747715
2294209.991,-9.483741558,1.232516883,1.625844169
2294219.757,-9.482217518,1.315564963,1.77824816
2294229.523,-9.558700813,1.276444527,1.822226357
2294239.288,-9.790077923,1.075228769,1.761438441
2294249.054,-9.789315903,1.116752809,1.837640436
2294258.82,-9.635498593,1.156695122,1.834756112
2294268.585,-9.676112985,1.272389415,1.619470742
2294278.351,-9.674903429,1.274808526,1.740426291
2294288.116,-9.752281795,1.313897948,1.694897382
2294297.882,-9.86521458,1.27880161,1.940080482
2294307.648,-9.635051057,1.117590193,1.879509665
2294317.413,-9.637200034,1.233292239,1.664611973
2294327.179,-9.710639281,1.000259899,2.012994968
2294336.945,-9.788553883,1.158276849,1.913842432
2294346.71,-9.941520473,1.080035977,2.001798826
2294356.476,-9.787658812,1.080066991,2.003349538
2294366.241,-10.02113652,1.314650043,1.732502152
2294376.007,-10.09457576,1.081617703,2.080885147
2294385.773,-10.4007307,1.124692455,2.23462275
2294395.538,-10.82425345,1.123800796,2.190039776
2294405.304,-10.78435673,0.926671164,2.333558187
2294415.07,-10.4752908,0.809418405,2.47092027
2294424.835,-9.746016298,0.766428942,2.321447125
2294434.601,-10.09247114,1.005826956,2.291347801
2294444.366,-9.822632644,0.847042404,2.352120211
2294454.132,-9.746242082,0.605977375,2.298868755
2294463.898,-9.705131772,0.771274918,2.5637459
2294473.663,-9.747629039,0.763203461,2.160173059
2294483.429,-9.786005753,0.683373109,2.168655455
2294493.195,-9.594347964,0.922073302,2.103665108
2294502.96,-9.518223504,0.920476069,2.023803432
2294512.726,-9.594573748,0.761621735,2.081086739
2294522.491,-9.404883503,1.316386841,1.819342033
2294532.257,-9.482398952,1.115202097,1.760104828
2294542.023,-9.599496639,1.191775953,1.588797655
2294551.788,-9.368748498,1.231733774,1.586688687
2294561.554,-9.485039815,1.309920371,1.496018547
2294571.32,-9.523638281,1.429646515,1.482325758
2294581.085,-9.448590325,1.305896273,1.294813643
2294590.851,-9.408108984,1.309935878,1.496793903
2294600.616,-9.294724632,1.665935351,1.29676754
2294610.382,-9.486023586,1.467952827,1.397641367
2294620.148,-9.486338071,1.387323858,1.366192924
2294629.913,-9.525920309,1.665082459,1.254122956
2294639.679,-9.679963403,1.464688578,1.234428911
2294649.445,-9.371478061,1.506274647,1.313732332
2294659.21,-9.717174913,1.427188636,1.359431819
2294668.976,-9.676830654,1.190954076,1.547703783
2294678.741,-9.564837292,1.344171571,1.20857854
2294688.507,-9.832216355,1.107874982,1.393749079
2294698.273,-9.793077621,1.229229374,1.461468679
2294708.038,-9.983525854,0.992948292,1.647414575
2294717.804,-9.831095501,1.190116691,1.505834555
2294727.57,-9.946358695,1.070359533,1.517976631
2294737.335,-10.10062354,1.069522148,1.476107402
2294747.101,-9.944568553,0.913939817,1.696990843
2294756.866,-9.945282191,1.192512541,1.625627069
2294766.632,-9.981062393,0.957875214,1.89376071
2294776.398,-9.981957464,1.036085072,1.804253603
2294786.163,-10.21628589,1.308966683,1.448334147
2294795.929,-9.983033968,0.913932063,1.696603165
2294805.695,-9.982985586,1.234028828,1.701441387
2294815.46,-9.867903825,1.15342312,1.671155978
2294825.226,-9.982582401,1.234835198,1.741759903
2294834.991,-9.751926992,0.994607554,1.730377676
2294844.757,-10.17634482,1.071925752,1.596287595
2294854.523,-10.6351075,1.077477301,1.873865073
2294864.288,-11.13148892,0.684714475,2.235723756
2294874.054,-11.82252782,0.207252061,2.362603025
2294883.82,-10.78471959,0.52594543,2.297271522
2294893.585,-10.47869771,0.602604576,2.130228808
2294903.351,-11.43952269,0.964031541,2.201577074
2294913.116,-10.40131935,0.563515154,2.175757717
2294922.882,-9.709212006,0.44311445,2.155722516
2294932.648,-9.940766517,0.401543889,2.077194452
2294942.413,-9.44084917,0.521378583,2.068929156
2294952.179,-9.325364224,0.441579245,2.078962263
2294961.945,-9.402472455,0.601208935,2.06044676
2294971.71,-9.404710133,0.79673358,1.836678995
2294981.476,-9.288459135,1.118466346,1.923317283
2294991.241,-9.096668295,1.237432641,1.871632047
2295001.007,-9.058380281,1.397085592,1.854279578
2295010.773,-9.021346173,1.59423073,1.711536523
2295020.538,-8.869274654,1.75068146,1.534073023
2295030.304,-9.023942686,1.749037706,1.451885278
2295040.07,-8.871020446,1.867189877,1.359493848
2295049.835,-8.720291534,2.140955394,1.047769688
2295059.601,-9.144576307,2.098539694,0.926984718
2295069.366,-9.068181712,2.217482729,0.874136447
2295079.132,-9.183489257,2.13763687,0.881843487
2295088.898,-9.490228808,1.979542385,0.977119242
2295098.663,-9.299824925,2.255734766,0.78673831
2295108.429,-9.566712103,1.940421949,1.021097439
2295118.195,-9.645211323,1.897269661,0.863483055
2295127.96,-9.720662464,2.020213533,1.010676653
2295137.726,-9.759353663,1.859754212,0.987710606
2295147.491,-9.835703907,1.700899878,1.044993913
2295157.257,-10.06542393,1.462998302,1.149915099
2295167.023,-9.98800121,1.383997581,1.199879044
2295176.788,-10.02579734,1.145328402,1.266420103
2295186.554,-10.14101618,0.985659944,1.282997216
2295196.32,-9.985408729,0.869182542,1.459127104
2295206.085,-9.947568251,1.067940422,1.397021082
2295215.851,-9.906417622,0.833318602,1.665930078
2295225.616,-9.944391152,0.75429462,1.71473099
2295235.382,-10.05902538,0.795795399,1.789769952
2295245.148,-9.94268971,0.677697503,1.884875129
2295254.913,-9.943584781,0.75590736,1.795368023
2295264.679,-9.9791392,0.681721601,2.086080032
2295274.445,-10.0960111,0.918747025,1.937351229
2295284.21,-10.21091546,0.839707536,1.985376784
2295293.976,-10.32469897,0.842909756,2.145487815
2295303.741,-10.05727555,1.039295046,1.964752312
2295313.507,-10.05718685,0.959472448,1.973622386
2295323.273,-10.09578532,1.079198592,1.959929598
2295333.038,-10.1369803,1.353731711,1.686585564
2295342.804,-10.25116699,1.356127562,1.806378079
2295352.57,-9.982671102,1.314657797,1.73288983
2295362.335,-9.983566173,1.392867654,1.643382724
2295372.101,-9.984013708,1.431972583,1.59862917
2295381.866,-9.869109348,1.511012072,1.550603615
2295391.632,-9.945548293,1.431980337,1.599016848
2295401.398,-9.909098804,1.427956239,1.397811945
2295411.163,-9.9857595,1.548481,1.424049995
2295420.929,-9.754789607,1.388882324,1.44411621
2295430.695,-9.755551627,1.347358284,1.367914215
2295440.46,-9.947386817,1.268303288,1.415164414
2295450.226,-9.756091895,1.106277748,1.313887403
2295459.991,-9.52587999,1.265163096,1.258154808
2295469.757,-9.717533747,1.386470967,1.32354834
2295479.523,-9.64078435,1.186123607,1.306180363
2295489.288,-9.680100486,1.224414412,1.220720616
2295499.054,-9.680233537,1.34414831,1.207415506
2295508.82,-9.681354392,1.261906601,1.09533003
2295518.585,-9.680322238,1.423970909,1.198545432
2295528.351,-9.873366984,1.342496802,1.124840083
2295538.116,-9.565107426,1.223631303,1.181565134
2295547.882,-9.757926388,1.302608763,1.130438154
2295557.648,-9.639889279,1.107913749,1.395687469
2295567.413,-9.795496732,1.224391152,1.219557582
2295577.179,-9.756003194,1.02645515,1.322757476
2295586.945,-9.718118366,1.18530173,1.265086491
2295596.71,-9.71758213,1.066374202,1.318710118
2295606.476,-9.870996255,1.027238259,1.361912959
2295616.241,-9.794960496,1.105463624,1.273181208
2295626.007,-9.94671753,1.029641863,1.482093151
2295635.773,-9.869697999,0.949834772,1.491738581
2295645.538,-9.86911338,1.151004009,1.55020043
2295655.304,-9.984912811,1.150174378,1.508718879
2295665.07,-9.870770471,1.187689827,1.384491328
2295674.835,-9.909368938,1.307415971,1.370798539
2295684.601,-9.792138199,1.111108216,1.555410822
2295694.366,-9.715969389,1.069599684,1.479984183
2295704.132,-9.75564436,1.067172819,1.358640956
2295713.898,-10.10304265,1.064683926,1.234196305
2295723.663,-10.4865316,1.106936801,1.346840036
2295733.429,-10.71414699,0.793244478,1.662223876
2295743.195,-11.01954394,0.517835206,1.891760291
2295752.96,-11.97764338,0.244713235,2.235661728
2295762.726,-11.24787297,0.482715607,2.135780357
2295772.491,-10.36616811,0.636894544,1.844727191
2295782.257,-10.40427469,0.67760446,1.880222992
2295792.023,-10.78928768,0.636809255,1.840462733
2295801.788,-9.829894009,0.472519675,1.625983733
2295811.554,-9.444389136,0.434298652,1.714932583
2295821.32,-9.254525521,0.469410497,1.470524839
2295831.085,-9.177639041,0.509337303,1.466865158
2295840.851,-9.060807456,0.672231242,1.61156211
2295850.616,-9.293567491,0.988249634,1.412481682
2295860.382,-9.292176502,1.191031611,1.551580563
2295870.148,-9.177856761,1.068901863,1.445093159
2295879.913,-9.294728664,1.305927287,1.296364355
2295889.679,-9.331311205,1.429685283,1.484264148
2295899.445,-9.140774271,1.586143767,1.307188326
2295909.21,-9.218555822,1.624426818,1.221340901
2295918.976,-9.219628294,1.862281873,1.114093648
2295928.741,-9.334843107,2.062621479,1.131073946
2295938.507,-9.567921658,1.938002838,0.90014189
2295948.273,-9.528920007,1.819083064,0.954153195
2295958.038,-9.529682026,1.777559024,0.877951199
2295967.804,-9.568014391,1.657817373,0.890868631
2295977.57,-9.646110426,1.615471455,0.773572763
2295987.335,-9.760926085,1.456609368,0.830468393
2295997.101,-10.10702612,1.376716987,0.835849364
2296006.866,-10.10922348,1.172322269,0.61611345
2296016.632,-10.14316516,1.10136199,1.068099525
2296026.398,-10.21951943,0.582499593,1.124979647
2296036.163,-10.2621941,0.734073333,0.703666659
2296045.929,-10.25852512,0.341411303,1.070565157
2296055.695,-10.1035426,0.423684027,1.184201344
2296065.46,-10.14017352,0.227345258,1.367262915
2296075.226,-10.40979027,0.186573314,1.32866569
2296084.991,-10.25440457,0.269652408,1.482620393
2296094.757,-10.32990006,0.432507579,1.625378955
2296104.523,-10.09861568,0.353537872,1.676893613
2296114.288,-10.13555705,0.436578199,1.828909927
2296124.054,-10.09745047,0.395868283,1.793414125
2296133.82,-10.05942856,0.794989029,1.749451436
2296143.585,-9.907223993,0.831705861,1.585293046
2296153.351,-9.867234537,0.914761694,1.738084715
2296163.116,-9.791287479,1.072809658,1.640482892
2296172.882,-9.637603219,1.232485869,1.624293457
2296182.648,-9.637558869,1.19257457,1.628728494
2296192.413,-9.791327797,1.472729021,1.63645104
2296202.179,-9.751475425,1.315510688,1.775534414
2296211.945,-9.792355919,1.670672776,1.533638824
2296221.71,-9.830152047,1.432003598,1.600179883
2296231.476,-9.791819683,1.551745249,1.58726245
2296241.241,-9.90739333,1.711367185,1.568359269
2296251.007,-9.909050421,1.748053003,1.402650167
2296260.773,-9.793521125,1.628342366,1.417118312
2296270.538,-9.908602886,1.708948074,1.44740372
2296280.304,-9.640062649,1.62756701,1.378350507
2296290.07,-9.716408861,1.82872074,1.436037
2296299.835,-9.987642375,1.42471525,1.235762524
2296309.601,-9.79468633,1.586011956,1.3005978
2296319.366,-9.832301024,1.547705644,1.385282191
2296329.132,-9.756446698,1.425568142,1.278407108
2296338.898,-9.757208718,1.384044102,1.202205113
2296348.663,-9.717666798,1.506204865,1.310243229
2296358.429,-9.756716832,1.305027874,1.251393703
2296368.195,-9.602988222,1.424792786,1.239639304
2296377.96,-9.641723772,1.304244764,1.21223822
2296387.726,-9.756986966,1.184487606,1.224380297
2296397.491,-9.565240477,1.3433652,1.168260023
2296407.257,-9.794242826,1.186898963,1.344948167
2296417.023,-9.835707939,1.340891815,1.044590728
2296426.788,-9.679382817,1.305849751,1.292487575
2296436.554,-9.910981678,1.304190489,1.209524474
2296446.32,-9.911788049,1.302577749,1.128887442
2296456.085,-10.02678111,1.303360858,1.168042924
2296465.851,-10.02669241,1.22353826,1.176912997
2296475.616,-9.909683422,1.226787002,1.339350097
2296485.382,-9.949805928,1.263465066,1.173253317
2296495.148,-9.949672877,1.143731169,1.186558427
2296504.913,-9.872697696,1.103835376,1.19176882
2296514.679,-9.94819722,0.906682484,1.334124197
2296524.445,-9.949628527,1.103819869,1.190993464
2296534.21,-9.948600405,0.905876114,1.29380568
2296543.976,-10.06583114,1.102183868,1.109193397
2296553.741,-9.680414971,1.143785443,1.189272173
2296563.507,-9.910401092,1.145351663,1.267583138
2296573.273,-9.796214401,1.142955812,1.147790623
2296583.038,-9.718924736,1.183688989,1.184449458
2296592.804,-10.02539415,1.146134772,1.30673862
2296602.57,-9.794779062,1.305826491,1.291324541
2296612.335,-9.83338156,1.065544571,1.277228567
2296622.101,-9.946491746,1.19009343,1.50467152
2296631.866,-9.832260706,1.147786281,1.389314042
2296641.632,-9.909191536,1.147770774,1.388538686
2296651.398,-9.908832701,1.188488443,1.424422166
2296661.163,-9.754523505,1.149414529,1.470726431
2296670.929,-9.869202081,1.230826607,1.541330356
2296680.695,-10.02293069,1.111061695,1.553084754
2296690.46,-10.10272817,1.145312895,1.265644747
2296700.226,-10.14114923,1.105393842,1.269692106
2296709.991,-9.871218007,1.226794755,1.339737775
2296719.757,-9.986569902,1.186860196,1.343009777
2296729.523,-9.948463322,1.14615028,1.307513976
2296739.288,-9.946850581,1.149375761,1.468788041
2296749.054,-10.0242733,1.228376482,1.418824095
2296758.82,-10.29447063,1.346443364,1.322168206
2296768.585,-10.64375179,1.220188722,1.009436084
2296778.351,-10.98385243,0.832295132,1.614756577
2296788.116,-11.7134898,0.474558861,1.727943058
2296797.882,-12.32683585,0.038635994,1.931799679
2296807.648,-9.252642646,0.593176246,1.65881231
2296817.413,-10.71378816,0.833962147,1.698107356
2296827.179,-11.09920433,0.792360572,1.61802858
2296836.945,-9.791069759,0.513245098,1.662254891
2296846.71,-9.252376544,0.353708451,1.68542253
2296856.476,-9.636893613,0.593905081,1.695254045
2296866.241,-9.2919104,0.951563816,1.578190784
2296876.007,-9.521360285,0.834202508,1.710125375
2296885.773,-9.175663433,0.913288518,1.664425888
2296895.538,-9.213677281,1.234183899,1.709194948
2296905.304,-9.176106937,1.31240151,1.62007552
2296915.07,-9.101458135,1.547852961,1.392648074
2296924.835,-9.13992355,1.547845208,1.392260396
2296934.601,-9.100784815,1.6691996,1.459979996
2296944.366,-9.103022493,1.864724245,1.23621223
2296954.132,-9.335427725,1.861452242,1.072612097
2296963.898,-9.412354524,2.221444799,1.072239926
2296973.663,-9.338245989,2.215815713,0.790785668
2296983.429,-9.568453862,2.416938429,0.846921449
2296993.195,-9.416430726,2.253292395,0.664619727
2297002.96,-9.492377784,2.095244431,0.76222155
2297012.726,-9.60929807,2.01217309,0.608654525
2297022.491,-9.571102789,1.891640576,0.582028797
2297032.257,-9.76374435,1.810972839,0.548641964
2297042.023,-9.87945508,1.73032061,0.516030487
2297051.788,-9.840904996,1.290497701,0.524885053
2297061.554,-9.994633605,1.170732789,0.536639452
2297071.32,-10.07080242,1.212241322,0.612066091
2297081.085,-10.10774782,0.935273584,0.76367922
2297090.851,-10.2219829,0.61757267,0.878633512
2297100.616,-10.37539702,0.578436727,0.921836353
2297110.382,-10.1034539,0.343861428,1.193071418
2297120.148,-10.18069518,0.623225016,1.161250804
2297129.913,-10.29443434,0.586515937,1.325796872
2297139.679,-10.09811976,0.634529708,1.726485388
2297149.445,-10.14039124,0.786909818,1.345490917
2297159.21,-9.946540129,0.869996666,1.499833298
2297168.976,-10.09977282,1.031223589,1.561179472
2297178.741,-9.67727819,1.230059005,1.50295023
2297188.507,-9.63764757,1.272397168,1.61985842
2297198.273,-9.794017042,1.347350531,1.367526537
2297208.038,-9.754563823,1.549333892,1.466694579
2297217.804,-9.830599583,1.471108527,1.55542633
2297227.57,-9.716457243,1.508623976,1.431198778
2297237.335,-10.02476115,1.667400774,1.37003869
2297247.101,-9.870722089,1.507786591,1.38932955
2297256.866,-9.949531762,1.744013398,1.200669908
2297266.632,-9.795625751,1.704133113,1.206655657
2297276.398,-10.25591248,1.626636583,1.331829143
2297286.163,-9.98723919,1.425521621,1.27608104
2297295.929,-9.832929993,1.386447706,1.322385305
2297305.695,-10.10357889,1.183611454,1.180572678
2297315.46,-9.988585828,1.182828344,1.141417196
2297325.226,-10.02700689,1.142909291,1.145464555
2297334.991,-9.990238887,1.579522226,0.976111279
2297344.757,-10.06668186,1.140482427,1.024121328
2297354.523,-9.947971436,1.067134051,1.356702566
2297364.288,-10.2540417,0.670378141,1.518907058
2297374.054,-9.869073062,0.751084646,1.554232281
2297383.82,-11.63785319,0.91198592,1.599295977
2297393.585,-11.52258597,1.391751142,1.587557086
2297403.351,-9.949084227,1.704908469,1.245423461
2297413.116,-10.75739418,1.823673172,1.183658595
2297422.882,-10.67903608,1.26654323,1.327161499
2297432.648,-9.792452684,1.030479248,1.52396238
2297442.413,-8.831176138,0.989955417,1.497770851
2297452.179,-8.982888822,0.874222357,1.711117831
2297461.945,-9.023547564,1.029827948,1.491397424
2297471.71,-9.0240838,1.148755476,1.437773798
2297481.476,-8.947330371,1.30841618,1.420809007
2297491.241,-8.834397587,1.343512518,1.175625906
2297501.007,-9.180227489,1.384160406,1.208020283
2297510.773,-9.220079862,1.541378738,1.068936909
2297520.538,-9.29767998,1.780024656,1.001232816
2297530.304,-9.489918355,1.70016329,1.0081645
2297540.07,-9.375997767,1.937235235,0.861761764
2297549.835,-9.299740256,1.815904104,0.795205198
2297559.601,-9.414507533,1.977138781,0.856939049
2297569.366,-9.608624751,2.133519729,0.675986447
2297579.132,-9.763337133,2.171787273,0.589363665
2297588.898,-9.532726074,1.971470928,0.573546401
2297598.663,-9.49663542,1.92672916,0.336458018
2297608.429,-9.646961147,1.653770014,0.688500694
2297618.195,-9.957462415,1.608152094,0.407604692
2297627.96,-10.26518574,1.608090065,0.404503268
2297637.726,-10.18709373,1.290427919,0.521395951
2297647.491,-10.14858397,1.250524373,0.526218666
2297657.257,-10.41833779,0.969478263,0.473913145
2297667.023,-10.26286339,0.972734758,0.636737922
2297676.788,-10.29895808,0.657468462,0.87342312
2297686.554,-10.41390679,0.618340273,0.917013639
2297696.32,-10.41229405,0.621565754,1.078287704
2297706.085,-10.21858001,0.464378436,1.21892179
2297715.851,-10.10295798,0.624853264,1.242663193
2297725.616,-10.33258527,0.667137153,1.356857637
2297735.382,-10.10035744,0.830054352,1.502717623
2297745.148,-9.984243524,0.911512952,1.575647616
2297754.913,-9.946806231,1.109464462,1.473223078
2297764.679,-9.86902468,1.07118141,1.559070503
2297774.445,-9.831272902,1.349761888,1.488094407
2297784.21,-9.90641359,1.193326665,1.666333264
2297793.976,-9.907889248,1.43037535,1.518767494
2297803.741,-9.870451955,1.628326859,1.416342956
2297813.507,-9.791372148,1.51264032,1.632016003
2297823.273,-9.833151745,1.586004202,1.300210121
2297833.038,-10.02722461,1.702473851,1.123692556
2297842.804,-9.988847898,1.782304203,1.11521016
2297852.57,-9.951233204,1.820610515,1.030525769
2297862.335,-10.02807533,1.74077241,1.038620486
2297872.101,-10.06609321,1.701659727,1.082986361
2297881.866,-10.06770595,1.698434246,0.921712296
2297891.632,-10.22107573,1.619387003,0.969350174
2297901.398,-10.02834547,1.620232142,1.011607081
2297911.163,-10.03107906,1.534764951,0.73824754
2297920.929,-10.06775434,1.378337481,0.916874074
2297930.695,-10.02933327,1.418256534,0.912826716
2297940.46,-9.990734805,1.29853039,0.926519504
2297950.226,-9.836828794,1.258650105,0.932505253
2297959.991,-9.645799974,1.33609236,0.804618021
2297969.757,-9.645263737,1.217164833,0.858241647
2297979.523,-9.491087592,1.297824816,0.891240802
2297989.288,-9.569139277,1.215567599,0.778379971
2297999.054,-9.565958146,1.261929861,1.096493064
2298008.82,-9.493192219,1.373615563,0.680778147
2298018.585,-9.53143185,1.534059377,0.702968838
2298028.351,-9.644364634,1.498963039,0.948151939
2298038.116,-9.452573795,1.617929334,0.896466702
2298047.882,-9.608540082,1.693689067,0.684453335
2298057.648,-9.452662495,1.697751933,0.887596629
2298067.413,-9.645348406,1.656995495,0.849774759
2298077.179,-9.529637676,1.737647725,0.882386236
2298086.945,-10.03067588,1.535571321,0.778566056
2298096.71,-9.915368333,1.61541718,0.770859017
2298106.476,-9.950700999,1.341674924,1.08374621
2298116.241,-9.952801594,1.777473735,0.873686741
2298126.007,-10.03027269,1.536377691,0.818884573
2298135.773,-10.0285269,1.419869275,0.993463748
2298145.538,-10.10532468,1.30011987,1.005993503
2298155.304,-9.912146883,1.261860079,1.093003962
2298165.07,-10.10621975,1.378329728,0.916486396
2298174.835,-9.988315694,1.303368612,1.168430602
2298184.601,-9.989210765,1.38157847,1.078923496
2298194.366,-10.10353454,1.143700154,1.185007715
2298204.132,-10.02633357,1.26425593,1.212796477
2298213.898,-9.987779458,1.184441085,1.222054228
2298223.663,-10.1029096,0.944950028,1.247501415
2298233.429,-10.0251724,0.946578276,1.328913804
2298243.195,-9.911477596,1.023198654,1.159932699
2298252.96,-10.02647066,1.023981764,1.199088181
2298262.726,-10.21714064,0.987257178,1.362858893
2298272.491,-9.910175308,1.30580323,1.290161507
2298282.257,-10.25569476,1.067072023,1.353601141
2298292.023,-10.10245803,1.265853163,1.292658153
2298301.788,-9.986928737,1.146142526,1.307126298
2298311.554,-10.17889698,1.186821428,1.341071387
2298321.32,-10.48845479,1.383090414,1.154520714
2298331.085,-11.10434897,1.422071286,1.103564312
2298340.851,-10.25565041,1.027160724,1.358036178
2298350.616,-10.10268382,1.105401596,1.270079784
2298360.382,-9.679741651,1.265132082,1.256604095
2298370.148,-10.06560536,1.262635435,1.131771766
2298379.913,-10.79470246,1.145979701,1.298985059
2298389.679,-9.715703287,0.830131888,1.506594403
2298399.445,-9.254876292,1.148708955,1.435447729
2298409.21,-9.562422212,0.989001729,1.450086452
2298418.976,-9.561257007,1.031332139,1.566606964
2298428.741,-9.44890481,1.225267304,1.2633652
2298438.507,-9.562777015,1.308292123,1.414606158
2298448.273,-9.525206671,1.386509735,1.32548673
2298458.038,-9.29369651,1.467991595,1.399579757
2298467.804,-9.295889837,1.623604941,1.180247028
2298477.57,-9.142205578,1.783281152,1.164057593
2298487.335,-9.064645779,1.944554597,1.227729835
2298497.101,-9.106514077,2.097741078,0.887053879
2298506.866,-9.260645872,1.977169795,0.858489761
2298516.632,-9.453553534,2.135969854,0.798492708
2298526.398,-9.454448606,2.214179712,0.708985602
2298536.163,-9.110320145,2.250128942,0.506447086
2298545.929,-9.418047498,1.89005885,0.502942476
2298555.695,-9.763296814,1.77186791,0.593395517
2298565.46,-9.765135338,1.608190862,0.409543083
2298575.226,-9.726625573,1.568287316,0.414365797
2298584.991,-9.842650787,1.407006118,0.350305878
2298594.757,-10.3028972,0.929590224,0.479511216
2298604.523,-10.11106201,1.00864522,0.432261016
2298614.288,-10.0708508,0.892144557,0.607227869
2298624.054,-10.26371814,0.651025253,0.551262667
2298633.82,-10.22484954,0.651839377,0.591968862
2298643.585,-10.26139176,0.37567801,0.783900506
2298653.351,-10.22180549,0.457927473,0.89637366
2298663.116,-10.33635102,0.419605654,0.980282695
2298672.882,-10.37333674,0.542557279,1.127863972
2298682.648,-10.25565444,0.66715266,1.357632993
2298692.413,-10.17997751,0.704660355,1.233017763
2298702.179,-10.10111946,0.788530313,1.426515627
2298711.945,-10.14034689,0.746998519,1.349925953
2298721.71,-9.987243221,1.065513557,1.275677855
2298731.476,-10.02405155,1.028819986,1.440999279
2298741.241,-9.909639072,1.186875703,1.343785133
2298751.007,-10.02293069,1.111061695,1.553084754
2298760.773,-9.831990572,1.268326549,1.416327448
2298770.538,-9.871262357,1.266706055,1.335302738
2298780.304,-9.947923054,1.387230816,1.361540788
2298790.07,-9.949310011,1.544456902,1.222845092
2298799.835,-10.02664403,1.543635024,1.181751219
2298809.601,-9.988896281,1.462207439,1.110371938
2298819.366,-10.10384499,1.423079249,1.153962457
2298829.132,-10.21964442,1.422249618,1.112480907
2298838.898,-9.988493095,1.463013809,1.150690455
2298848.663,-9.950656649,1.301763625,1.088181247
2298858.429,-10.10398207,1.182805083,1.140254162
2298868.195,-10.52705729,1.142808495,1.14042474
2298877.96,-11.0644079,1.185030355,1.25151776
2298887.726,-11.48685415,1.306291704,1.314585223
2298897.491,-10.79295667,1.029471285,1.473564234
2298907.257,-9.682249463,1.340116458,1.005822924
2298917.023,-11.1411573,1.385377715,1.268885736
2298926.788,-10.41000799,0.746137874,1.306893691
2298936.554,-9.29397874,0.267427136,1.371356796
2298946.32,-8.909772123,0.3066096,1.330480023
2298956.085,-9.486305816,0.267388368,1.369418405
2298965.851,-9.292587751,0.470209114,1.510455677
2298975.616,-9.176473836,0.551667713,1.58338567
2298985.382,-9.178308328,0.747998728,1.399936421
2298995.148,-9.023100029,0.99072302,1.536150977
2299004.913,-9.064161956,1.145522241,1.276112054
2299014.679,-8.986557807,1.266884387,1.344219333
2299024.445,-9.103026525,1.504716181,1.235809045
2299034.21,-9.142431362,1.622829584,1.141479224
2299043.976,-9.371699813,1.705831143,1.291557148
2299053.741,-9.490228808,1.979542385,0.977119242
2299063.507,-9.337802486,1.816702721,0.835136036
2299073.273,-9.376356602,1.896517566,0.825878285
2299083.038,-9.800149489,1.775085638,0.754281904
2299092.804,-9.762446093,1.733569352,0.678467586
2299102.57,-9.645215355,1.537261597,0.863079869
2299112.335,-10.06977026,1.37430563,0.715281493
2299122.101,-10.14629791,1.375096493,0.754824653
2299131.866,-10.415959,1.374235848,0.711792391
2299141.632,-10.37843704,1.132356695,0.617834741
2299151.398,-10.26290774,1.012646058,0.632302885
2299161.163,-10.26125065,0.97596024,0.798011987
2299170.929,-10.14518512,0.737322075,0.866103758
2299180.695,-10.14473758,0.698217146,0.910857311
2299190.46,-10.37369558,0.50183961,1.091980492
2299200.226,-10.37467935,0.659872066,0.993603312
2299209.991,-10.10116784,0.468433548,1.421677405
2299219.757,-10.0246402,0.467642685,1.382134245
2299229.523,-9.868403774,0.51242322,1.621161018
2299239.288,-10.09986555,0.751038124,1.551906213
2299249.054,-9.869520597,0.790189575,1.509478728
2299258.82,-9.87059307,1.028044629,1.402231475
2299268.585,-9.829216658,0.953874377,1.69371884
2299278.351,-9.870367286,1.188496197,1.424809844
2299288.116,-9.715610554,1.110317353,1.515867662
2299297.882,-9.715876656,1.349785149,1.489257441
2299307.648,-9.987642375,1.42471525,1.235762524
2299317.413,-9.755910462,1.306640615,1.332030735
2299327.179,-9.796166019,1.463052577,1.152628845
2299336.945,-9.990150186,1.499699627,0.984981353
2299346.71,-9.987864127,1.624271747,1.21358734
2299356.476,-9.872693665,1.46384344,1.192172005
2299366.241,-9.874975693,1.699279384,0.963969203
2299376.007,-10.02713591,1.622651253,1.132562629
2299385.773,-10.10626007,1.778249091,0.912454545
2299395.538,-9.951458988,1.660158948,1.0079474
2299405.304,-9.989791352,1.540417297,1.020864832
2299415.07,-9.991000907,1.537998186,0.899909283
2299424.835,-9.874935374,1.299360021,0.968001054
2299434.601,-10.0285269,1.419869275,0.993463748
2299444.366,-9.952087956,1.49890101,0.945050514
2299454.132,-9.83584099,1.460625712,1.031285618
2299463.898,-9.875741744,1.29774728,0.887364022
2299473.663,-9.642397091,1.182898126,1.144906298
2299483.429,-9.605185581,1.220398068,1.019903391
2299493.195,-9.683414668,1.297786048,0.889302412
2299502.96,-9.491309344,1.497381312,0.869065618
2299512.726,-9.489789336,1.220421328,1.021066425
2299522.491,-9.607467609,1.455834012,0.791700588
2299532.257,-9.683233235,1.498148915,0.907445744
2299542.023,-9.644231583,1.379229141,0.961457049
2299551.788,-9.836736061,1.53883557,0.941778512
2299561.554,-9.643739697,1.300212913,1.010645639
2299571.32,-9.83584099,1.460625712,1.031285618
2299581.085,-10.06663348,1.460579191,1.02895955
2299590.851,-9.875919146,1.457392477,0.869623875
2299600.616,-9.798319028,1.218746559,0.937327968
2299610.382,-9.912908903,1.220336039,1.016801966
2299620.148,-10.03054283,1.415837423,0.791871167
2299629.913,-9.915461065,1.335231715,0.761585758
2299639.679,-10.02960341,1.297716266,0.88581331
2299649.445,-9.989347848,1.141304304,1.0652152
2299659.21,-10.18333202,1.177951354,0.897567708
2299668.976,-10.02785761,1.18120785,1.060392485
2299678.741,-9.875741744,1.29774728,0.887364022
2299688.507,-9.950926783,1.181223357,1.061167841
2299698.273,-9.950209114,1.262658696,1.1329348
2299708.038,-9.988585828,1.182828344,1.141417196
2299717.804,-10.10555046,1.139668303,0.983415133
2299727.57,-9.913400789,1.299352268,0.967613376
2299737.335,-10.10349019,1.103788855,1.189442752
2299747.101,-9.951418669,1.260239585,1.011979251
2299756.866,-9.949402743,1.264271437,1.213571833
2299766.632,-10.02758748,1.301748118,1.087405891
2299776.398,-9.718340118,1.384858226,1.242911307
2299786.163,-10.10303862,1.42469199,1.23459949
2299795.929,-9.874217704,1.38079536,1.039768013
2299805.695,-9.912054151,1.542045544,1.102277221
2299815.46,-10.21839052,1.38475743,1.237871492
2299825.226,-10.02682546,1.343272158,1.163607887
2299834.991,-9.950209114,1.262658696,1.1329348
2299844.757,-10.02655936,1.103804362,1.190218108
2299854.523,-10.10294992,1.344869391,1.243469563
2299864.288,-10.10277252,1.185224194,1.261209711
2299874.054,-9.949805928,1.263465066,1.173253317
2299883.82,-9.949850279,1.303376366,1.16881828
2299893.585,-9.795093547,1.225197522,1.259876098
2299903.351,-9.988989013,1.182021974,1.10109868
2299913.116,-9.796528886,1.062326844,1.11634218
2299922.882,-10.02745443,1.18201422,1.100711002
2299932.648,-9.795629783,1.344125049,1.206252471
2299942.413,-9.87462089,1.37998899,0.999449497
2299952.179,-9.950390547,1.062295829,1.114791468
2299961.945,-9.795363681,1.104657254,1.232862692
2299971.71,-9.911384863,1.303384119,1.169205958
2299981.476,-9.873725819,1.301779132,1.088956603
2299991.241,-9.873233933,1.222762904,1.138145193
2300001.007,-9.988674529,1.262650942,1.132547122
2300010.773,-9.758462624,1.421536291,1.076814527
2300020.538,-9.833873446,1.1445608,1.228039977
2300030.304,-9.873818551,1.021593667,1.079683345
2300040.07,-9.796528886,1.062326844,1.11634218
2300049.835,-9.834502415,0.983302862,1.165143092
2300059.601,-9.987243221,1.065513557,1.275677855
2300069.366,-9.833740395,1.024826902,1.241345088
2300079.132,-10.06511347,1.183619207,1.180960356
2300088.898,-10.10156699,0.827635241,1.381762074
2300098.663,-9.833607344,0.905093004,1.254650198
2300108.429,-9.794827445,0.985729726,1.286486319
2300118.195,-9.794964527,0.74545556,1.272778023
2300127.96,-9.831325316,0.66965706,1.482853
2300137.726,-9.946225644,0.950625635,1.531281741
2300147.491,-10.02674079,0.903441496,1.172074775
2300157.257,-10.71629597,0.908946524,1.447326185
2300167.023,-11.67475022,0.955114947,1.755747327
2300176.788,-10.71794903,1.305640405,1.282020268
2300186.554,-10.52620254,1.464518,1.225899995
2300196.32,-10.06425872,1.505328712,1.266435611
2300206.085,-10.67679437,1.431026649,1.551332449
2300215.851,-10.44752995,0.988017027,1.400851341
2300225.616,-9.485176897,1.069646205,1.482310251
2300235.382,-9.292761121,0.989862374,1.493118715
2300245.148,-9.406766377,1.192621091,1.631054562
2300254.913,-9.369018632,1.111193506,1.559675281
2300264.679,-9.292712738,1.309959139,1.497956937
2300274.445,-9.216539896,1.62845867,1.422933482
2300284.21,-9.255319796,1.547821947,1.391097361
2300293.976,-9.293962612,1.707459391,1.372969536
2300303.741,-9.219092058,1.743354345,1.167717274
2300313.507,-9.064827212,1.74419173,1.209586503
2300323.273,-9.142967598,1.741757112,1.087855598
2300333.038,-9.182461135,1.939693114,0.984655703
2300342.804,-9.261319191,1.855823157,0.791157839
2300352.57,-9.338564506,1.775178681,0.75893404
2300362.335,-9.375868748,1.457493274,0.874663689
2300372.101,-9.300506308,1.414372,0.718600017
2300381.866,-9.722867887,1.095802687,0.790134369
2300391.632,-10.03041381,0.936095462,0.804773092
2300401.398,-10.1865575,1.171500392,0.575019578
2300411.163,-10.37615501,0.896920751,0.846037543
2300420.929,-10.33912493,0.734057826,0.702891303
2300430.695,-10.41551953,0.615114791,0.755739573
2300440.46,-10.60664108,0.257487071,0.874353547
2300450.226,-10.56759105,0.458664061,0.933203074
2300459.991,-10.60686283,0.457043567,0.852178363
2300469.757,-10.49025703,0.459485939,0.974296946
2300479.523,-10.527021,0.382881068,1.144053407
2300489.288,-10.56503888,0.343768386,1.188419282
2300499.054,-10.33352872,0.425250246,1.262512309
2300508.82,-10.02593845,0.545046172,1.252308623
2300518.585,-10.10080901,0.509151218,1.457560885
2300528.351,-9.868492475,0.592245819,1.612290945
2300538.116,-9.906373272,0.793407302,1.670365115
2300547.882,-9.868444093,0.912342583,1.617129167
2300557.648,-9.792855869,1.029672877,1.483643863
2300567.413,-9.830470564,0.991366565,1.568328255
2300577.179,-9.638365239,1.190961829,1.548091461
2300586.945,-9.791150396,1.313083824,1.654191187
2300596.71,-9.792896188,1.42959224,1.479612012
2300606.476,-9.562285129,1.229275895,1.463794748
2300616.241,-9.718207067,1.265124328,1.256216417
2300626.007,-9.718428818,1.464680825,1.234041233
2300635.773,-9.757966706,1.702528126,1.126406302
2300645.538,-9.873229901,1.582770968,1.138548378
2300655.304,-9.950519566,1.542037791,1.101889543
2300665.07,-9.721964752,1.737608957,0.880447846
2300674.835,-9.913175006,1.459803835,0.990191746
2300684.601,-10.06806479,1.657716576,0.885828817
2300694.366,-10.03022834,1.496466392,0.82331961
2300704.132,-10.06716972,1.579506718,0.975335923
2300713.898,-9.875919146,1.457392477,0.869623875
2300723.663,-9.839828491,1.41265071,0.632535492
2300733.429,-9.840320377,1.491666938,0.583346902
2300743.195,-9.875741744,1.29774728,0.887364022
2300752.96,-9.68516046,1.414294465,0.714723237
2300762.726,-9.491220643,1.417558714,0.877935692
2300772.491,-9.723089639,1.295359184,0.767959185
2300782.257,-9.567659588,1.338526979,0.926348926
2300792.023,-9.568332907,1.21718034,0.859017004
2300801.788,-9.682608298,1.299398789,0.969939445
2300811.554,-9.568244206,1.137357742,0.867887077
2300821.32,-9.491220643,1.417558714,0.877935692
2300831.085,-9.644546068,1.298600172,0.930008606
2300840.851,-9.604689664,1.501389903,1.069495166
2300850.616,-9.68283005,1.498955285,0.947764261
2300860.382,-9.951729122,1.53961868,0.980933994
2300870.148,-9.682515565,1.579584254,0.979212703
2300879.913,-9.877487536,1.414255697,0.712784846
2300889.679,-9.950430865,1.462215192,1.110759616
2300899.445,-9.874798291,1.539634187,0.98170935
2300909.21,-9.951148535,1.380779853,1.038992657
2300918.976,-9.952446791,1.458183341,0.909167035
2300928.741,-10.06636738,1.221111395,1.05556977
2300938.507,-10.10613105,1.298507129,0.92535647
2300948.273,-10.26012979,1.058201949,0.910097462
2300958.038,-10.10451831,1.301732611,1.086630535
2300967.804,-10.33464151,1.063024664,1.151233204
2300977.57,-10.14410458,1.219483148,0.974157382
2300987.335,-10.2185276,1.144483264,1.224163197
2300997.101,-10.10295395,0.984861328,1.243066378
2301006.866,-10.10384902,1.063071185,1.153559272
2301016.632,-10.21987424,0.901789987,1.089499353
2301026.398,-9.83338156,1.065544571,1.277228567
2301036.163,-10.06372652,1.026393121,1.319656052
2301045.929,-10.02499097,1.146941143,1.347057136
2301055.695,-9.986122367,1.147755267,1.38776333
2301065.46,-10.10178471,1.387199802,1.359990075
2301075.226,-10.10205485,1.266659533,1.33297667
2301084.991,-10.02678111,1.303360858,1.168042924
2301094.757,-9.986033666,1.067932668,1.396633404
2301104.523,-9.834812868,1.262681957,1.134097834
2301114.288,-9.834006497,1.264294697,1.214734867
2301124.054,-9.947386817,1.268303288,1.415164414
2301133.82,-9.94998333,1.423110263,1.155513169
2301143.585,-9.872471913,1.264286944,1.214347189
2301153.351,-9.795988618,1.30340738,1.170368992
2301163.116,-9.910622844,1.344908159,1.245407954
2301172.882,-9.988497127,1.103005745,1.150287269
2301182.648,-9.795629783,1.344125049,1.206252471
2301192.413,-9.910489792,1.225174261,1.258713064
2301202.179,-9.833962147,1.224383398,1.219169904
2301211.945,-10.10362324,1.223522753,1.176137641
2301221.71,-9.797557008,1.260270599,1.013529964
2301231.476,-9.873637118,1.221956534,1.097826677
2301241.241,-9.988408427,1.023183147,1.159157343
2301251.007,-10.02369674,0.709529591,1.476479573
2301260.773,-9.717807913,0.905922635,1.296131749
2301270.538,-9.909151218,0.747851411,1.392570538
2301280.304,-9.833966179,0.864375334,1.218766719
2301290.07,-9.87372985,0.941771068,1.088553418
2301299.835,-10.06435549,0.865135183,1.256759167
2301309.601,-9.990468703,1.059062594,0.953129725
2301319.366,-9.987376273,1.185247455,1.262372745
2301329.132,-9.873415366,1.022400037,1.120001861
2301338.898,-9.910086607,1.225980632,1.29903158
2301348.663,-9.796351484,0.902681647,1.134082327
2301358.429,-10.06269436,1.188457429,1.422871454
2301368.195,-9.947834353,1.307408217,1.370410861
2301377.96,-10.10281687,1.225135493,1.256774674
2301387.726,-9.946669148,1.349738627,1.486931373
2301397.491,-9.948773774,1.425529374,1.276468718
2301407.257,-9.948507672,1.186061579,1.303078939
2301417.023,-9.71690881,1.187720841,1.38604204
2301426.788,-9.795633815,0.984116986,1.205849286
2301436.554,-9.7571684,0.984124739,1.206236964
2301446.32,-9.526420259,1.02408256,1.204127996
2301456.085,-9.680104518,0.864406349,1.220317431
2301465.851,-9.758648089,0.86116536,1.05826801
2301475.616,-9.605592798,0.859583634,0.979181689
2301485.382,-9.52794833,0.581026416,1.051320819
2301495.148,-9.567260434,0.979325285,0.966264257
2301504.913,-9.834550797,0.663206097,1.16030487
2301514.679,-9.794916145,1.065552325,1.277616245
2301524.445,-10.52262225,1.151678568,1.583928419
2301534.21,-11.29080567,1.59377327,1.688663519
2301543.976,-12.05778357,1.67827902,1.913950982
2301553.741,-10.71216332,1.91721182,1.860590976
2301563.507,-10.17422809,2.076159196,1.807959806
2301573.273,-11.32568274,2.000942213,2.047110636
2301583.038,-10.7500925,1.798276539,1.913826925
2301592.804,-9.7495482,1.399365138,1.968256922
2301602.57,-9.403762648,1.39862855,1.931427508
2301612.335,-9.288322052,1.358740512,1.937025579
2301622.101,-9.290741163,1.35390229,1.695114481
2301631.866,-9.369147651,1.590935467,1.546773356
2301641.632,-9.406540594,1.353072659,1.653632931
2301651.398,-9.064831244,1.384183666,1.209183317
2301661.163,-9.14046785,0.946756608,1.337830399
2301670.929,-9.10478038,0.90120847,1.060423499
2301680.695,-8.952668543,0.657739837,0.886991851
2301690.46,-8.91594892,0.774256007,0.712800354
2301700.226,-8.99216208,0.855675839,0.783791956
2301709.991,-8.992295132,0.975409737,0.770486846
2301719.757,-9.492704364,0.934591271,0.729563552
2301729.523,-9.454730835,1.013615253,0.68076264
2301739.288,-9.801858994,1.131666628,0.583331395
2301749.054,-10.0321596,1.052603878,0.630193917
2301758.82,-9.878564041,1.292102688,0.605134408
2301768.585,-10.11065882,1.009451591,0.472579532
2301778.351,-10.07290704,1.288032069,0.401603436
2301788.116,-10.11258201,1.285605204,0.28026021
2301797.882,-10.34234638,1.087614927,0.380746358
2301807.648,-10.22627682,1.208984826,0.449241314
2301817.413,-10.34162871,1.169050266,0.452513317
2301827.179,-10.18736387,1.169887651,0.494382545
2301836.945,-10.26339963,1.091662286,0.583114295
2301846.71,-10.22305134,1.215435789,0.771789444
2301856.476,-10.02795035,0.901022385,1.051119227
2301866.241,-9.911969482,1.102214882,1.110744109
2301876.007,-10.14075008,0.746192149,1.309607437
2301885.773,-10.0278173,0.781288487,1.064424337
2301895.538,-9.951245299,0.740586324,1.029316213
2301905.304,-9.755608073,0.307245392,1.362269622
2301915.07,-9.640256178,0.347179952,1.35899762
2301924.835,-9.832272801,0.06776209,1.388104487
2301934.601,-10.13990742,-0.012122537,1.393873136
2301944.366,-10.8708874,-0.252544021,1.372798958
2301954.132,-11.44464314,-0.246209362,1.689531918
2301963.898,-11.71560249,-0.169666519,1.516674033
2301973.663,-11.52071922,0.075484636,1.774231816
2301983.429,-10.87056485,0.548101075,1.405053771
2301993.195,-11.83134951,0.509608678,1.480433889
2302002.96,-10.7930494,0.74928582,1.464290976
2302012.726,-10.17715522,0.710304948,1.515247377
2302022.491,-9.906953859,0.952246129,1.612306452
2302032.257,-9.792049499,1.031285618,1.564280896
2302042.023,-9.484322145,1.39135571,1.567785505
2302051.788,-9.598416103,1.673937026,1.696851279
2302061.554,-9.711526288,1.798485885,1.924294232
2302071.32,-9.561200561,2.071445031,1.572251557
2302081.085,-9.44540113,2.072274662,1.613733107
2302090.851,-9.176409326,2.311796733,1.589836632
2302100.616,-9.060343793,2.073158568,1.657928404
2302110.382,-8.986279609,2.107440782,1.372039109
2302120.148,-8.48690253,1.98619494,1.309747001
2302129.913,-8.527387903,1.622147271,1.107363557
2302139.679,-8.568228079,1.577389996,0.869499818
2302149.445,-8.532004373,1.412914331,0.645716545
2302159.21,-8.495151698,1.409696603,0.484830158
2302168.976,-9.073878719,1.526088716,0.304435812
2302178.741,-9.150362014,1.48696828,0.348414009
2302188.507,-9.302207749,1.490969118,0.548455878
2302198.273,-9.419752972,1.606647903,0.332395152
2302208.038,-9.881608089,1.486014592,0.30072961
2302217.804,-10.15368829,1.480315725,0.01578625
2302227.57,-10.42223256,1.201688726,0.084436277
2302237.335,-10.84468284,0.962942011,0.147100556
2302247.101,-10.65244447,1.042803377,0.140168873
2302256.866,-10.41856358,0.809026696,0.451334775
2302266.632,-10.61192281,0.64692362,0.346180984
2302276.398,-10.45680724,0.609462446,0.473122281
2302286.163,-10.56826437,0.337317423,0.865871151
2302295.929,-10.52782737,0.381268327,1.063416374
2302305.695,-10.33437944,0.463548805,1.177440239
2302315.46,-10.37091763,0.547395501,1.369775069
2302325.226,-10.0607752,0.552295752,1.614787591
2302334.991,-10.0985673,0.673634637,1.681731835
2302344.757,-9.982453382,0.755093237,1.754661828
2302354.523,-9.868266691,0.752697386,1.634869314
2302364.288,-9.752241477,0.913978585,1.698929233
2302374.054,-9.598783001,0.913203229,1.660161429
2302383.82,-9.598468517,0.993832197,1.691609872
2302393.585,-9.637337117,0.993018074,1.650903678
2302403.351,-9.601065029,1.148639173,1.431958627
2302413.116,-9.486382421,1.427235158,1.361757887
2302422.882,-9.524896219,1.10713064,1.356531987
2302432.648,-9.603302707,1.344163817,1.208190862
2302442.413,-9.758059439,1.422342661,1.117133043
2302452.179,-9.604286479,1.502196274,1.109813682
2302461.945,-9.719727075,1.542084312,1.104215611
2302471.71,-9.799657603,1.69606941,0.803470494
2302481.476,-9.914876447,1.536400952,0.820047607
2302491.241,-9.991718577,1.456562846,0.828142324
2302501.007,-9.953027378,1.617022167,0.851108372
2302510.773,-9.915323983,1.575505881,0.775294054
2302520.538,-10.14481822,1.498055872,0.902793608
2302530.304,-10.06784304,1.45816008,0.908004001
2302540.07,-9.913666892,1.538820063,0.941003156
2302549.835,-9.913578191,1.458997465,0.949873229
2302559.601,-9.835929691,1.540448311,1.022415544
2302569.366,-9.91425151,1.337650826,0.882541307
2302579.132,-9.757926388,1.302608763,1.130438154
2302588.898,-9.566179898,1.461486358,1.07431788
2302598.663,-9.449888581,1.38329976,1.164988021
2302608.429,-9.294950416,1.505483783,1.274189171
2302618.195,-9.451501322,1.380074279,1.003713956
2302627.96,-9.451993208,1.459090507,0.954525366
2302637.726,-9.375332511,1.338565746,0.928287316
2302647.491,-9.68206803,1.540479325,1.023966257
2302657.257,-9.489204717,1.421590565,1.079528273
2302667.023,-9.489607902,1.420784195,1.039209757
2302676.788,-9.605721818,1.339325595,0.966279764
2302686.554,-9.989839734,1.220320532,1.01602661
2302696.32,-10.02888574,1.379151605,0.957580269
2302706.085,-10.06699635,1.059853458,0.992672885
2302715.851,-10.29765579,0.940073039,1.003651927
2302725.616,-10.87284284,1.143545083,1.177254154
2302735.382,-11.18195715,0.940701077,1.035053848
2302745.148,-11.56697014,0.899905872,0.995293589
2302754.913,-11.17923162,0.30615214,1.307607019
2302764.679,-10.90948183,0.227190187,1.359509355
2302774.445,-12.02372497,0.189473146,1.473657277
2302784.21,-11.36901057,-0.168790367,1.560481651
2302793.976,-10.7135785,-0.44561854,1.719072984
2302803.741,-10.44230467,-0.441532414,1.923379312
2302813.507,-10.17228474,-0.399954099,2.002295054
2302823.273,-10.09414436,-0.397519481,2.124025959
2302833.038,-10.13345646,0.000779388,2.038969397
2302842.804,-9.900825444,0.164502958,2.225147899
2302852.57,-9.712123002,0.517292457,1.864622828
2302862.335,-9.596142138,0.718484954,1.924247711
2302872.101,-9.482265901,0.995468199,1.773409939
2302881.866,-9.443127166,1.116822591,1.841129539
2302891.632,-9.289664658,1.476055298,1.80276492
2302901.398,-8.98310251,1.79379498,1.689749017
2302911.163,-9.022777481,1.791368116,1.56840579
2302920.929,-8.909397161,1.787359525,1.367976243
2302930.695,-8.718771526,1.86399541,1.199770495
2302940.46,-8.835373295,2.221561102,1.078055097
2302950.226,-9.067016507,2.259813139,0.990656959
2302959.991,-8.876302172,2.256626426,0.831321284
2302969.757,-9.145604429,2.29648345,0.824172501
2302979.523,-9.30175215,2.171880316,0.594015802
2302989.288,-9.648747257,2.170197793,0.509889667
2302999.054,-9.763341164,1.81177921,0.58896048
2303008.82,-9.612882386,1.965004458,0.250222915
2303018.585,-10.03305064,1.4908218,0.541089996
2303028.351,-9.995302893,1.409394214,0.469710715
2303038.116,-10.14880975,1.090072806,0.503640297
2303047.882,-10.26299644,1.092468656,0.623432812
2303057.648,-10.37946919,0.970292387,0.514619339
2303067.413,-10.34073767,0.730832345,0.541617238
2303077.179,-10.37665093,0.615928915,0.796445768
2303086.945,-10.45394059,0.575195739,0.759786932
2303096.71,-10.29792995,0.459524707,0.976235336
2303106.476,-10.17877199,0.347071403,1.353570127
2303116.241,-10.10165973,0.547449776,1.372488815
2303126.007,-10.214907,0.431724469,1.586223473
2303135.773,-10.21620525,0.509127957,1.456397851
2303145.538,-10.25256604,0.433329457,1.666472828
2303155.304,-10.2513081,0.755845332,1.792266598
2303165.07,-9.983437154,0.913125693,1.656284649
2303174.835,-9.866787002,0.875656765,1.782838268
2303184.601,-9.675488048,1.073639289,1.681964442
2303194.366,-9.868488443,0.952253883,1.61269413
2303204.132,-9.869919751,1.149391268,1.469563397
2303213.898,-9.755418576,1.227624386,1.381219325
2303223.663,-9.755104092,1.308253355,1.412667768
2303233.429,-9.679919053,1.424777279,1.238863948
2303243.195,-9.641542338,1.504607631,1.230381553
2303252.96,-9.910175308,1.30580323,1.290161507
2303262.726,-10.02574896,1.465425167,1.271258325
2303272.491,-9.875112776,1.459005218,0.950260907
2303282.257,-10.02776488,1.461393315,1.069665744
2303292.023,-10.14459243,1.65850744,0.925371977
2303301.788,-10.18296915,1.578677087,0.933854373
2303311.554,-9.837183597,1.577940499,0.897024959
2303321.32,-9.990509021,1.458981957,0.949097873
2303331.085,-9.990509021,1.458981957,0.949097873
2303340.851,-9.989166415,1.341667171,1.083358532
2303350.616,-9.912638769,1.340876307,1.043815372
2303360.382,-9.720267343,1.301003776,1.050188799
2303370.148,-9.721118063,1.339302335,0.96511673
2303379.913,-9.721880083,1.297778295,0.888914734
2303389.679,-9.683188884,1.458237616,0.911880781
2303399.445,-9.604153427,1.382462376,1.123118792
2303409.21,-9.488845882,1.462308235,1.115411753
2303418.976,-9.52986346,1.577196157,0.859807867
2303428.741,-9.412318237,1.461517372,1.075868593
2303438.507,-9.603838943,1.463091345,1.154567235
2303448.273,-9.644453335,1.578785637,0.939281865
2303458.038,-9.683366286,1.617882813,0.894140634
2303467.804,-9.490099788,1.499800423,0.990021167
2303477.57,-9.837453731,1.457400231,0.870011553
2303487.335,-9.874439456,1.580351857,1.01759283
2303497.101,-9.760341467,1.657778605,0.888930241
2303506.866,-9.837812565,1.416682561,0.834128073
2303516.632,-9.836421577,1.619464539,0.973226954
2303526.398,-9.914561963,1.617029921,0.85149605
2303536.163,-10.14217735,1.303337598,1.16687989
2303545.929,-10.18297318,1.218669024,0.933451187
2303555.695,-9.989210765,1.38157847,1.078923496
2303565.46,-10.10362324,1.223522753,1.176137641
2303575.226,-10.1050102,1.380748839,1.037441945
2303584.991,-10.29572856,1.023927489,1.196374435
2303594.757,-10.06529087,1.343264404,1.163220209
2303604.523,-10.17876393,1.06708753,1.354376497
2303614.288,-10.06426275,1.145320649,1.266032425
2303624.054,-10.10304265,1.064683926,1.234196305
2303633.82,-10.02749878,1.221925519,1.096275965
2303643.585,-9.949987362,1.0631022,1.155109984
2303653.351,-9.910312391,1.065529064,1.276453211
2303663.116,-9.873012181,1.023206408,1.160320377
2303672.882,-9.717178944,1.067180573,1.359028634
2303682.648,-9.757793337,1.182874865,1.143743264
2303692.413,-9.642800276,1.182091756,1.104587782
2303702.179,-9.602093151,1.346582928,1.32914641
2303711.945,-9.874487839,1.260255092,1.012754608
2303721.71,-9.988585828,1.182828344,1.141417196
2303731.476,-9.566897568,1.380051018,1.002550922
2303741.241,-9.873504067,1.102222636,1.111131787
2303751.007,-9.720400394,1.420737674,1.036883689
2303760.773,-9.874262055,1.42070666,1.035332977
2303770.538,-9.874173354,1.340884061,1.04420305
2303780.304,-10.02705124,1.18282059,1.141029518
2303790.07,-10.02812372,1.420675645,1.033782265
2303799.835,-9.682563947,1.25948749,0.974374481
2303809.601,-9.758329573,1.301802393,1.090119637
2303819.366,-9.950390547,1.062295829,1.114791468
2303829.132,-9.912775852,1.100602142,1.030107077
2303838.898,-9.835038652,1.102230389,1.111519465
2303848.663,-9.947794034,0.907488854,1.374442713
2303858.429,-10.14424166,0.979208982,0.960449086
2303868.195,-10.02696254,1.102997992,1.149899591
2303877.96,-10.17970738,0.825200623,1.260031169
2303887.726,-9.98711017,0.945779659,1.288982965
2303897.491,-10.21785831,0.905821839,1.291091934
2303907.257,-10.14137502,0.944942275,1.247113737
2303917.023,-10.21615284,1.189232785,1.461639258
2303926.788,-10.25547301,0.867515527,1.375776325
2303936.554,-10.44994906,0.983178805,1.158940243
2303946.32,-10.25663418,1.18519318,1.259658998
2303956.085,-10.2541304,0.75020074,1.510036984
2303965.851,-10.29420856,0.746967505,1.348375241
2303975.616,-10.29411985,0.667144906,1.357245315
2303985.382,-10.13837532,0.79094167,1.547083498
2303995.148,-10.0636862,0.626473758,1.323687904
2304004.913,-10.02486195,0.667199181,1.359959061
2304014.679,-9.79433959,0.546705434,1.335271724
2304024.445,-9.872479976,0.544270816,1.213540819
2304034.21,-9.79353322,0.548318175,1.415908756
2304043.976,-9.717767595,0.506003272,1.3001636
2304053.741,-9.600399774,0.549969684,1.498484179
2304063.507,-9.564575221,0.744695712,1.234785575
2304073.273,-9.756499112,0.745463314,1.273165701
2304083.038,-10.02732138,1.062280322,1.114016112
2304092.804,-10.5644462,1.26495375,1.2476875
2304102.57,-10.68266071,1.619293961,0.964698038
2304112.335,-11.02522078,1.626481512,1.324075582
2304122.101,-9.793972692,1.307439231,1.371961573
2304131.866,-9.102982175,1.464804882,1.240244082
2304141.632,-9.98652152,1.50695696,1.347847999
2304151.398,-10.90767556,1.510802726,1.540136308
2304161.163,-10.09730936,0.996150512,1.807525606
2304170.929,-9.290926628,0.793531359,1.676567964
2304180.695,-9.288822002,0.717740612,1.887030619
2304190.46,-9.480298357,0.679403286,1.970164298
2304200.226,-9.442014375,0.479048173,1.952408644
2304209.991,-9.25058237,0.557296799,1.864839928
2304219.757,-9.404532732,0.637088383,1.854419142
2304229.523,-9.290926628,0.793531359,1.676567964
2304239.288,-9.329303343,0.713701007,1.685050359
2304249.054,-9.253493367,0.631474805,1.57374024
2304258.82,-9.216322176,1.06889411,1.444705481
2304268.585,-9.180187171,0.984241043,1.212052135
2304278.351,-9.065371512,1.14310313,1.155156506
2304288.116,-9.181441077,1.021733231,1.086661549
2304297.882,-9.373723803,0.981783164,1.089158196
2304307.648,-9.375336543,0.978557683,0.927884131
2304317.413,-9.760438231,1.017585076,0.879253797
2304327.179,-9.760885767,1.056690005,0.834500244
2304336.945,-10.14751149,1.012669318,0.633465919
2304346.71,-10.14742279,0.93284672,0.642335993
2304356.476,-10.22386174,0.853814985,0.690749227
2304366.241,-10.41713227,0.61188931,0.594465508
2304376.007,-10.57157855,0.410689059,0.534452948
2304385.773,-10.57166725,0.490511657,0.525582874
2304395.538,-10.5718003,0.610245555,0.512277764
2304405.304,-10.72405325,0.253431959,0.671597931
2304415.07,-10.68549914,0.173617114,0.680855683
2304424.835,-10.76144619,0.01556915,0.778457507
2304434.601,-10.18343281,0.177749762,0.887488079
2304444.366,-10.2197936,0.101951261,1.097563056
2304454.132,-10.21518116,-0.048823862,1.558806882
2304463.898,-10.17855024,0.147514906,1.375745311
2304473.663,-10.25507788,0.148305769,1.415288471
2304483.429,-10.1742039,0.236207578,1.810378917
2304493.195,-10.09659975,0.357569724,1.878486195
2304502.96,-10.09807541,0.594618409,1.730920425
2304512.726,-10.01885852,0.719206035,1.960301769
2304522.491,-10.05884394,0.996158266,1.807913284
2304532.257,-9.981062393,0.957875214,1.89376071
2304542.023,-9.905115334,1.115923178,1.796158886
2304551.788,-9.945774077,1.27152877,1.576438479
2304561.554,-9.715429121,1.31068022,1.534010995
2304571.32,-9.756265265,1.625931009,1.296550441
2304581.085,-9.871484109,1.466262551,1.313127554
2304590.851,-9.796166019,1.463052577,1.152628845
2304600.616,-9.911650966,1.542851915,1.142595737
2304610.382,-9.799254418,1.69687578,0.84378901
2304620.148,-9.760252766,1.577956006,0.897800315
2304629.913,-9.952668543,1.657739837,0.886991851
2304639.679,-9.760655951,1.577149636,0.857481799
2304649.445,-9.876366681,1.496497406,0.824870322
2304659.21,-10.03184108,1.493240911,0.662045544
2304668.976,-9.878023772,1.533183224,0.65916122
2304678.741,-9.839425306,1.41345708,0.672854008
2304688.507,-9.800782489,1.253819637,0.690981833
2304698.273,-9.608814248,1.213140735,0.657036744
2304708.038,-9.763079094,1.21230335,0.615167516
2304717.804,-9.646832128,1.174028052,0.701402619
2304727.57,-9.725016864,1.211504734,0.575236677
2304737.335,-9.72296062,0.815617222,0.78086111
2304747.101,-9.723807309,1.213923845,0.696192226
2304756.866,-9.53049646,1.055930156,0.796507796
2304766.632,-9.760708365,0.897044808,0.852240391
2304776.398,-9.453339846,1.21639723,0.819861521
2304786.163,-9.644368666,1.138954975,0.947748754
2304795.929,-9.568332907,1.21718034,0.859017004
2304805.695,-9.682652648,1.339310088,0.965504408
2304815.46,-9.912013832,1.142126181,1.106309072
2304825.226,-9.719731107,1.182076249,1.103812426
2304834.991,-9.952047638,1.098981647,0.949082366
2304844.757,-10.02741008,1.142102921,1.105146038
2304854.523,-9.950120413,1.182836097,1.141804874
2304864.288,-10.25977096,1.098919619,0.945980942
2304874.054,-10.25600924,0.986443054,1.322152699
2304883.82,-10.18033232,1.023950749,1.197537469
2304893.585,-10.41022974,0.94569437,1.284718507
2304903.351,-10.06735518,1.019135788,0.956789406
2304913.116,-10.21749948,0.946539508,1.326975413
2304922.882,-10.40937902,0.907395812,1.369790576
2304932.648,-10.18109434,0.982426709,1.121335473
2304942.413,-10.10335714,0.984054957,1.202747862
2304952.179,-10.06444419,0.944957782,1.247889093
2304961.945,-10.10237336,0.826022501,1.301125042
2304971.71,-10.02579734,1.145328402,1.266420103
2304981.476,-9.949943011,1.0231909,1.159545021
2304991.241,-9.987243221,1.065513557,1.275677855
2305001.007,-9.794871795,1.025641026,1.282051282
2305010.773,-9.756765214,0.98493111,1.246555481
2305020.538,-9.758422305,1.021616928,1.080846379
2305030.304,-9.718162716,1.225213029,1.260651454
2305040.07,-9.682205113,1.300205159,1.010257961
2305049.835,-10.02669241,1.22353826,1.176912997
2305059.601,-9.718791685,1.063955091,1.197754569
2305069.366,-9.872875098,1.263480573,1.174028673
2305079.132,-9.987331922,1.145336156,1.266807781
2305088.898,-9.718836035,1.103866391,1.193319532
2305098.663,-9.834728199,0.822851294,1.142564723
2305108.429,-9.796710319,0.861963977,1.098198848
2305118.195,-9.718436882,0.744664697,1.233234863
2305127.96,-10.02660774,0.783707598,1.185379886
2305137.726,-10.10134524,0.628078745,1.403937258
2305147.491,-10.25641646,0.62562862,1.281430997
2305157.257,-10.29380537,0.747773875,1.388693758
2305167.023,-10.13878254,0.430127236,1.506361797
2305176.788,-10.3290453,0.754217084,1.71085421
2305186.554,-10.21611655,0.429305358,1.465267924
2305196.32,-10.02652307,0.343876935,1.193846774
2305206.085,-9.909514084,0.347125677,1.356283873
2305215.851,-10.02459585,0.427731386,1.386569282
2305225.616,-10.25677529,0.58491095,1.245547518
2305235.382,-10.48680577,0.626388469,1.319423445
2305245.148,-10.94892698,0.745222954,1.261147682
2305254.913,-11.52420274,1.028517597,1.425879835
2305264.679,-10.79358563,0.868213347,1.410667349
2305274.445,-9.602496336,1.345776558,1.288827894
2305284.21,-11.10166376,1.187441713,1.37208563
2305293.976,-10.44699371,0.869089499,1.454474968
2305303.741,-9.75466462,0.549132299,1.45661495
2305313.507,-9.521541718,0.633839641,1.691982043
2305323.273,-9.135766711,0.716158886,1.807944298
2305333.038,-8.94536686,0.632343204,1.617160181
2305342.804,-9.062061362,0.70972343,1.486171524
2305352.57,-8.946842517,0.869391888,1.469594411
2305362.335,-9.138004389,0.911683531,1.584176533
2305372.101,-8.870939809,1.067351151,1.367557551
2305381.866,-9.023858017,1.309207043,1.460352167
2305391.632,-9.216588278,1.308361905,1.41809526
2305401.398,-9.026946415,1.543030247,1.151512332
2305411.163,-9.140641219,1.466409869,1.320493437
2305420.929,-9.180090407,1.624434572,1.221728579
2305430.695,-9.181751529,1.301112326,1.055616292
2305440.46,-9.299119351,1.257145914,0.857295713
2305450.226,-9.493014817,1.213970366,0.698518295
2305459.991,-9.919049413,0.928055019,0.402750963
2305469.757,-10.26116195,0.896137641,0.806882061
2305479.523,-10.18700906,0.850597257,0.52986284
2305489.288,-10.26335931,0.691742923,0.587146147
2305499.054,-10.41870066,0.56875253,0.43762648
2305508.82,-10.72409357,0.653351322,0.66756608
2305518.585,-10.80129453,0.532795546,0.639777318
2305528.351,-10.80044381,0.494496988,0.724849387
2305538.116,-10.72145271,0.458633047,0.931652361
2305547.882,-10.56692176,0.220002636,1.000131811
2305557.648,-10.33464958,0.343008537,1.150426834
2305567.413,-10.52465028,0.067622526,1.381126282
2305577.179,-10.33227482,0.387758058,1.387902894
2305586.945,-10.17518767,0.394240035,1.712001737
2305596.71,-10.13748428,0.352723748,1.636187419
2305606.476,-9.982501764,0.434996472,1.749823606
2305616.241,-9.983396835,0.51320633,1.6603165
2305626.007,-9.905974119,0.434205609,1.710280446
2305635.773,-9.790307739,0.554769138,1.738456886
2305645.538,-9.597710529,0.675348174,1.767408682
2305655.304,-9.79044079,0.674503036,1.725151776
2305665.07,-9.754168702,0.830124135,1.506206725
2305674.835,-9.714941267,0.871655928,1.582796399
2305684.601,-9.794065425,1.027253766,1.362688315
2305694.366,-9.71538477,1.270768921,1.538446031
2305704.132,-9.911118761,1.063916324,1.195816179
2305713.898,-10.06529087,1.343264404,1.163220209
2305723.663,-10.02713994,1.262643189,1.132159444
2305733.429,-9.989525249,1.300949501,1.047475053
2305743.195,-10.10595365,1.138861932,0.943096617
2305752.96,-10.18369085,1.137233685,0.861684228
2305762.726,-9.953301544,1.136473836,0.82369178
2305772.491,-10.1071632,1.136442821,0.822141068
2305782.257,-10.03036543,1.256192226,0.809611314
2305792.023,-10.03095004,1.055022989,0.751149465
2305801.788,-10.0292486,0.978425872,0.921293604
2305811.554,-10.14504803,0.977596241,0.879812054
2305821.32,-9.912598451,0.940956944,1.047847224
2305831.085,-9.83566762,0.940972452,1.04862258
2305840.851,-9.565470292,0.822905569,1.145278469
2305850.616,-9.7571684,0.984124739,1.206236964
2305860.382,-9.794650043,0.826084529,1.304226466
2305870.148,-9.758869841,1.060721857,1.036092826
2305879.913,-9.603262388,0.944244454,1.212222713
2305889.679,-9.604782396,1.221204438,1.060221907
2305899.445,-9.566272631,1.181300892,1.065044622
2305909.21,-9.563494685,1.226856784,1.342839199
2305918.976,-9.643203461,1.181285385,1.064269266
2305928.741,-9.642711575,1.102269157,1.113457856
2305938.507,-9.680459321,1.183696743,1.184837136
2305948.273,-9.873548417,1.142133935,1.10669675
2305958.038,-9.79379529,1.147794034,1.389701721
2305967.804,-10.02503532,1.186852442,1.342622099
2305977.57,-10.14083475,1.186022811,1.301140549
2305987.335,-9.987646407,1.064707187,1.235359339
2305997.101,-10.10237336,0.826022501,1.301125042
2306006.866,-10.25677126,0.944919014,1.245950703
2306016.632,-10.29259581,0.750192986,1.509649306
2306026.398,-10.10362727,0.863514689,1.175734456
2306036.163,-10.2181728,0.82519287,1.259643491
2306045.929,-10.25627938,0.865902786,1.295139293
2306055.695,-10.21745513,0.906628209,1.33141045
2306065.46,-10.21812845,0.785281571,1.264078528
2306075.226,-10.14003241,0.827627488,1.381374396
2306084.991,-9.910090639,0.865972568,1.298628395
2306094.757,-9.911344545,0.903464756,1.173237809
2306104.523,-9.79527498,1.024834655,1.241732766
2306114.288,-9.756676514,0.905108511,1.255425554
2306124.054,-9.910312391,1.065529064,1.276453211
2306133.82,-9.795899917,1.223584781,1.179239066
2306143.585,-10.10263947,1.065490296,1.274514821
2306153.351,-9.911074411,1.024005024,1.200251215
2306163.116,-9.988182643,1.183634714,1.181735712
2306172.882,-9.910312391,1.065529064,1.276453211
2306182.648,-9.795363681,1.104657254,1.232862692
2306192.413,-9.757704636,1.103052267,1.152613338
2306202.179,-9.756628131,1.225205276,1.260263776
2306211.945,-9.910489792,1.225174261,1.258713064
2306221.71,-9.950390547,1.062295829,1.114791468
2306231.476,-9.833470261,1.14536717,1.268358494
2306241.241,-10.14258457,0.942523164,1.126158188
2306251.007,-10.103087,1.104595225,1.229761268
2306260.773,-9.873637118,1.221956534,1.097826677
2306270.538,-9.989033364,1.221933273,1.096663643
2306280.304,-10.02866398,1.179595109,0.979755453
2306290.07,-9.872608996,1.024012778,1.200638893
2306299.835,-9.796351484,0.902681647,1.134082327
2306309.601,-9.605189613,0.860390004,1.019500205
2306319.366,-9.718211098,0.905116265,1.255813232
2306329.132,-9.871536523,0.786157723,1.307886147
2306338.898,-9.83409923,0.984109232,1.205461608
2306348.663,-9.949406775,0.904263373,1.213168648
2306358.429,-9.796395835,0.942592946,1.129647291
2306368.195,-9.910626875,0.984900095,1.245004768
2306377.96,-9.758244904,0.861971731,1.098586526
2306387.726,-9.796976421,1.101431773,1.071588627
2306397.491,-9.79527498,1.024834655,1.241732766
2306407.257,-9.950253464,1.302569995,1.128499764
2306417.023,-9.642844626,1.222003055,1.100152745
2306426.788,-9.872383212,1.184464345,1.223217263
2306436.554,-9.758644057,1.221173424,1.058671195
2306446.32,-9.797198173,1.300988269,1.049413443
2306456.085,-9.718880386,1.14377769,1.188884495
2306465.851,-9.567167702,1.25951075,0.975537516
2306475.616,-9.528569235,1.139784606,0.989230304
2306485.382,-9.644546068,1.298600172,0.930008606
2306495.148,-9.56868771,1.536470734,0.823536709
2306504.913,-9.567079001,1.179688152,0.984407589
2306514.679,-9.566853217,1.340139719,1.006985958
2306524.445,-9.528613586,1.179695905,0.984795267
2306534.21,-9.834857218,1.302593256,1.129662798
2306543.976,-10.3740907,1.221049367,1.052468346
2306553.741,-11.21831391,1.22491064,1.245532011
2306563.507,-10.95120901,0.980658898,1.03294488
2306573.273,-10.10376435,0.623240523,1.162026161
2306583.038,-10.10344987,0.703869492,1.193474603
2306592.804,-11.41136672,0.423420406,1.171020291
2306602.57,-10.6783305,0.267954378,1.397718902
2306612.335,-10.02258798,-0.28825289,1.587355493
2306622.101,-9.871012382,-0.412793996,1.360300218
2306631.866,-10.1009985,-0.411227776,1.438611182
2306641.632,-9.869802827,-0.410374885,1.481255767
2306651.398,-9.86935126,-0.08947175,1.526412505
2306661.163,-9.792734914,-0.170085212,1.495739418
2306670.929,-9.562252875,0.109340405,1.467020229
2306680.695,-9.639046622,0.349599063,1.479953168
2306690.46,-9.792815551,0.629753514,1.487675715
2306700.226,-9.601246462,0.948276306,1.413815295
2306709.991,-9.716731409,1.028075644,1.403782187
2306719.757,-9.639530444,1.148631419,1.431570949
2306729.523,-9.48701139,1.26597722,1.298861002
2306739.288,-9.527670133,1.421582812,1.079140595
2306749.054,-9.258500927,1.501459685,1.072984268
2306758.82,-9.45149729,1.740082343,1.004117141
2306768.585,-9.490857776,1.818284447,0.914222357
2306778.351,-9.568147442,1.77755127,0.877563521
2306788.116,-9.607822412,1.775124406,0.756220294
2306797.882,-9.64485652,1.577979267,0.898963349
2306807.648,-9.915412683,1.65532848,0.76642398
2306817.413,-9.879233328,1.530764113,0.538205671
2306827.179,-9.878652741,1.371925287,0.596264334
2306836.945,-10.41649927,1.133155312,0.657765579
2306846.71,-10.95586983,0.811337257,0.566862832
2306856.476,-11.33833872,-0.064369752,0.78151241
2306866.241,-11.18152575,-0.538436107,1.078194661
2306876.007,-10.83861087,-0.864914052,0.754297411
2306885.773,-11.64468315,-0.941673994,0.916300311
2306895.538,-11.56412769,-1.294409217,1.279539128
2306905.304,-11.17929613,-1.453976879,1.301156056
2306915.07,-10.87134703,-1.293463283,1.326835849
2306924.835,-10.75335024,-1.088238934,1.588053313
2306934.601,-10.36694223,-0.484653687,1.76731564
2306944.366,-10.09947043,0.031828367,1.591418359
2306954.132,-9.790085987,0.355212641,1.76063207
2306963.898,-9.484326177,1.031347646,1.56738232
2306973.663,-9.562148046,1.469550061,1.477503043
2306983.429,-9.17722376,1.590167865,1.50839323
2306993.195,-8.94508463,1.832907663,1.645383142
2307002.96,-8.830986641,1.910334411,1.516720554
2307012.726,-8.448614516,2.145847891,1.292394532
2307022.491,-8.449691021,2.023694882,1.184744094
2307032.257,-8.295962411,2.143459794,1.172989696
2307042.023,-8.450630442,2.141816039,1.090801951
2307051.788,-8.41391485,1.898324145,0.916207268
2307061.554,-8.608612655,2.21354392,0.677196002
2307071.32,-9.185460833,2.093693719,0.684685942
2307081.085,-9.41674521,2.172663426,0.633171284
2307090.851,-9.763695967,2.131069604,0.553480186
2307100.616,-9.879854233,2.089522303,0.476115156
2307110.382,-10.07200391,1.929838338,0.491916913
2307120.148,-10.03582052,2.165282036,0.264101789
2307129.913,-10.2291354,1.963267661,0.163383034
2307139.679,-10.18986765,1.604880091,0.244004559
2307149.445,-10.38237616,1.404478457,0.223922837
2307159.21,-10.22820404,1.125130376,0.256518806
2307168.976,-10.22681709,0.96790429,0.395214502
2307178.741,-10.53539516,0.646132756,0.306637823
2307188.507,-10.22619618,0.4091461,0.457305017
2307198.273,-10.18728726,0.010040861,0.502043063
2307208.038,-10.76105107,-0.703640607,0.817969653
2307217.804,-11.64396548,-0.860238655,0.98806727
2307227.57,-11.79473471,-0.734084808,1.295759578
2307237.335,-11.0632185,-0.612590852,1.370457383
2307247.101,-11.48503578,-0.330071565,1.496421732
2307256.866,-11.02264443,-0.328365782,1.581710901
2307266.632,-10.44517131,-0.407265707,1.636714661
2307276.398,-9.94623774,-0.129398556,1.530072186
2307286.163,-9.559341878,0.035162398,1.758119917
2307295.929,-9.366833368,0.235564033,1.778201639
2307305.695,-9.446179278,0.590718367,1.535918371
2307315.46,-9.559599916,0.994646321,1.732316066
2307325.226,-9.406496243,1.313161359,1.658067968
2307334.991,-9.367494592,1.194241585,1.712079272
2307344.757,-9.060843742,1.432158669,1.607933443
2307354.523,-8.984271747,1.391456506,1.57282532
2307364.288,-8.790420631,1.474543354,1.727167702
2307374.054,-9.023543532,1.389836012,1.491800609
2307383.82,-8.832559063,1.507189567,1.35947834
2307393.585,-8.987271444,1.545457111,1.272855559
2307403.351,-9.335967993,1.620371706,1.018585285
2307413.116,-9.604641282,1.821486668,1.074333388
2307422.882,-9.99131136,1.817377281,0.868864026
2307432.648,-9.876136866,2.016957038,0.847851876
2307442.413,-10.41496716,1.936219519,0.810975941
2307452.179,-10.29912338,1.897137851,0.856892528
2307461.945,-10.37874346,1.771743853,0.587192668
2307471.71,-10.41600335,1.414147147,0.707357354
2307481.476,-10.26290371,1.372654121,0.63270607
2307491.241,-10.41766447,1.090824901,0.541245067
2307501.007,-10.33822583,1.015856032,0.792801594
2307510.773,-10.30168764,0.932009335,0.600466764
2307520.538,-10.49226892,0.815462151,0.77310755
2307530.304,-10.10716724,0.776434758,0.821737883
2307540.07,-10.10900576,0.612757709,0.637885449
2307549.835,-10.02831321,0.500296651,1.014832562
2307559.601,-9.643792112,0.620108085,1.005404232
2307569.366,-9.605149295,0.460470641,1.023532057
2307579.132,-9.60627015,0.378228932,0.911446582
2307588.898,-9.567353167,0.69913982,0.956990998
2307598.663,-9.756636195,0.505189148,1.259457406
2307608.429,-9.488809596,0.702380808,1.119040419
2307618.195,-9.5636358,0.626574554,1.328727718
2307627.96,-9.602951936,0.664865359,1.243267971
2307637.726,-9.718122398,0.825293666,1.264683306
2307647.491,-9.640744032,0.786204244,1.310212215
2307657.257,-9.948689105,0.985698712,1.284935607
2307667.023,-10.10237336,0.826022501,1.301125042
2307676.788,-10.10335714,0.984054957,1.202747862
2307686.554,-10.21982586,1.221886751,1.094337575
2307696.32,-10.33566964,1.26096842,1.048420987
2307706.085,-10.22022904,1.221080381,1.054019058
2307715.851,-10.14535849,1.256975336,0.848766796
2307725.616,-10.25905329,1.180354958,1.017747901
2307735.382,-10.41336249,1.219428873,0.971443635
2307745.148,-9.91425151,1.337650826,0.882541307
2307754.913,-10.21937832,1.182781823,1.139091128
2307764.679,-10.10519163,1.180385972,1.019298613
2307774.445,-10.14419328,1.299305746,0.965287308
2307784.21,-10.22126119,1.059016073,0.950803657
2307793.976,-10.02956309,0.897796903,0.889845161
2307803.741,-9.913537872,1.059078102,0.953905081
2307813.507,-9.913493522,1.019166802,0.958340118
2307823.273,-9.798456111,0.978472393,0.923619672
2307833.038,-9.56766362,0.978518915,0.925945741
2307842.804,-9.683015515,0.938584355,0.929217743
2307852.57,-9.643429245,1.020833818,1.041690897
2307862.335,-9.607604692,1.215559846,0.777992293
2307872.101,-9.530315027,1.256293023,0.814651129
2307881.866,-9.721029363,1.259479736,0.973986803
2307891.632,-9.722779186,1.015980089,0.799004443
2307901.398,-9.531032697,1.174857683,0.74288417
2307911.163,-9.913179037,1.099795771,0.98978856
2307920.929,-9.645755623,1.296181061,0.809053058
2307930.695,-9.876862599,1.215505571,0.775278547
2307940.46,-10.06910097,1.135644205,0.78221023
2307950.226,-9.83973979,1.332828111,0.641405566
2307959.991,-10.06842766,1.256990843,0.849542152
2307969.757,-10.0295147,1.217893668,0.894683383
2307979.523,-9.875342591,0.938545587,0.927279353
2307989.288,-10.10519163,1.180385972,1.019298613
2307999.054,-9.95455545,1.173966024,0.698301195
2308008.82,-9.953168493,1.016739938,0.836996891
2308018.585,-9.953035442,0.89700604,0.850302001
2308028.351,-10.18311026,0.978394858,0.919742892
2308038.116,-10.06673025,0.820385662,1.019283106
2308047.882,-9.949854311,0.943368302,1.168415095
2308057.648,-9.913941057,1.058271731,0.913586565
2308067.413,-10.10537306,0.980023106,1.001155281
2308077.179,-10.10586898,0.69903127,0.951563506
2308086.945,-9.911481628,0.66319059,1.159529514
2308096.71,-9.795948299,0.903488017,1.174400844
2308106.476,-10.02763586,0.981651353,1.082567669
2308116.241,-9.949495476,0.984085971,1.204298574
2308126.007,-9.989170447,0.981659107,1.082955347
2308135.773,-9.949628527,1.103819869,1.190993464
2308145.538,-9.951329968,1.180416987,1.020849325
2308155.304,-9.797379607,1.100625402,1.031270111
2308165.07,-9.988718879,1.302562242,1.128112085
2308174.835,-9.797557008,1.260270599,1.013529964
2308184.601,-9.875205508,1.178819753,0.940987649
2308194.366,-9.874084653,1.261061462,1.053073124
2308204.132,-10.17921146,1.106192459,1.309622944
2308213.898,-9.835171703,1.221964287,1.098214355
2308223.663,-9.911340513,1.26347282,1.173640995
2308233.429,-9.990198569,1.179602863,0.980143131
2308243.195,-9.720896312,1.139745838,0.987291914
2308252.96,-9.797512658,1.2203593,1.017965
2308262.726,-9.760345499,1.297770541,0.888527056
2308272.491,-9.874532189,1.300166391,1.008319571
2308282.257,-9.762450125,1.373561288,0.678064401
2308292.023,-9.645352438,1.296987431,0.849371574
2308301.788,-9.798407729,1.298569158,0.928457894
2308311.554,-9.607290208,1.296188815,0.809440736
2308321.32,-9.606306436,1.138156358,0.907817915
2308331.085,-9.605411365,1.0599465,0.997325022
2308340.851,-9.642219689,1.023252929,1.162646445
2308350.616,-9.720404426,1.06072961,1.036480504
2308360.382,-9.643429245,1.020833818,1.041690897
2308370.148,-9.568558691,1.056728773,0.836438634
2308379.913,-9.490152202,0.819695595,0.98477976
2308389.679,-9.488091926,0.783816148,1.190807378
2308399.445,-9.797206237,0.580972141,1.048607073
2308409.21,-9.986626348,0.146747304,1.337365185
2308418.976,-12.10034131,0.270086607,1.504330364
2308428.741,-11.79525885,0.46486691,1.243345506
2308438.507,-12.40958061,0.906992626,1.349631318
2308448.273,-10.29492622,0.665532166,1.276608282
2308458.038,-11.25687206,0.944717421,1.235871074
2308467.804,-11.10158312,0.387602987,1.380149334
2308477.57,-9.986807781,-0.053615563,1.319221853
2308487.335,-9.600633621,-0.330498011,1.475099439
2308497.101,-9.869173858,-0.249116947,1.544152652
2308506.866,-10.02119699,-0.085470913,1.726454374
2308516.632,-9.714009909,0.033518643,1.675932172
2308526.398,-9.563055213,0.467735728,1.386786382
2308536.163,-9.407314709,0.231524428,1.57622138
2308545.929,-9.409056469,0.708040908,1.402045389
2308555.695,-9.101018663,0.788731905,1.436595256
2308565.46,-8.94791499,1.107246943,1.362347158
2308575.226,-8.989335752,1.221328495,1.066424756
2308584.991,-8.874878928,1.339472913,0.973645647
2308594.757,-9.145749575,1.336193157,0.809657835
2308604.523,-9.491309344,1.497381312,0.869065618
2308614.288,-9.610197173,1.730374885,0.518744233
2308624.054,-9.610285874,1.810197483,0.50987416
2308633.82,-9.6123018,1.806165632,0.308281578
2308643.585,-9.650005195,1.847681918,0.384095896
2308653.351,-9.727786746,1.885964969,0.298248471
2308663.116,-9.879906647,1.409417475,0.470873749
2308672.882,-10.15082164,1.446049018,0.302450901
2308682.648,-10.19071837,1.64317865,0.15893249
2308692.413,-10.22820404,1.125130376,0.256518806
2308702.179,-10.11348112,1.003806998,0.190349918
2308711.945,-10.22946198,0.802614501,0.130725035
2308721.71,-10.0758261,0.642193948,0.109697379
2308731.476,-10.0757374,0.562371349,0.118567452
2308741.241,-10.30411481,0.207154986,0.357749296
2308751.007,-10.1111628,0.008443628,0.422181387
2308760.773,-10.26323432,-0.148007102,0.599644887
2308770.538,-10.03248618,-0.108049282,0.597535918
2308780.304,-9.952733053,-0.102389182,0.880540888
2308790.07,-9.874544284,0.2201422,1.007110015
2308799.835,-10.02782536,0.061272359,1.063617967
2308809.601,-9.988283439,0.183433122,1.171656083
2308819.366,-9.950890496,0.42129593,1.064796508
2308829.132,-10.02593845,0.545046172,1.252308623
2308838.898,-9.873371016,0.982488738,1.124436898
2308848.663,-10.0249063,0.70711048,1.355524024
2308858.429,-9.950076062,1.142924798,1.146239911
2308868.195,-9.951285618,1.140505687,1.025284362
2308877.96,-9.949943011,1.0231909,1.159545021
2308887.726,-10.02902282,1.138877439,0.943871973
2308897.491,-10.10438526,1.181998713,1.099935645
2308907.257,-9.951329968,1.180416987,1.020849325
2308917.023,-9.951640421,1.459796081,0.989804068
2308926.788,-9.99118234,1.337635319,0.881765951
2308936.554,-9.992480597,1.415038807,0.751940329
2308946.32,-9.991851628,1.576296744,0.814837214
2308956.085,-10.10783249,1.375104247,0.755212331
2308965.851,-10.14486257,1.537967171,0.898358571
2308975.616,-10.1838239,1.256967582,0.848379118
2308985.382,-10.10532468,1.30011987,1.005993503
2308995.148,-9.953164461,1.376748002,0.837400076
2309004.913,-10.14697123,1.253749855,0.687492731
2309014.679,-9.992750731,1.294498538,0.724926923
2309024.445,-9.799262481,0.976859653,0.84298264
2309034.21,-9.952047638,1.098981647,0.949082366
2309043.976,-9.722912237,1.135713987,0.785699332
2309053.741,-9.875608693,1.178013383,0.900669132
2309063.507,-9.683596102,1.097423182,0.87115908
2309073.273,-9.685253193,1.134109,0.705449978
2309083.038,-9.723851659,1.253835144,0.691757189
2309092.804,-9.8769513,1.295328169,0.766408473
2309102.57,-9.569631163,1.294583828,0.729191381
2309112.335,-9.760301148,1.257859242,0.892962093
2309122.101,-9.685253193,1.134109,0.705449978
2309131.866,-9.647009529,1.333673249,0.683662472
2309141.632,-9.874891024,1.259448722,0.972436091
2309151.398,-9.839155172,1.533997348,0.699867414
2309161.163,-9.876370713,1.136489343,0.824467137
2309170.929,-9.91429586,1.377562125,0.87810627
2309180.695,-9.836917494,1.338472704,0.923635179
2309190.46,-10.0295147,1.217893668,0.894683383
2309200.226,-9.95307576,1.296925403,0.84627015
2309209.991,-10.10644554,1.217878161,0.893908027
2309219.757,-10.14531414,1.217064037,0.853201833
2309229.523,-9.989662332,1.060675335,1.033766757
2309239.288,-10.14437471,1.09894288,0.947143976
2309249.054,-9.952854008,1.097368907,0.868445334
2309258.82,-10.14334659,0.900999124,1.049956192
2309268.585,-10.18324331,1.098128756,0.906437782
2309278.351,-10.25919037,0.940080792,1.004039605
2309288.116,-10.10586495,1.059039334,0.951966691
2309297.882,-9.8349056,0.982496492,1.124824576
2309307.648,-9.950660681,0.941755561,1.087778062
2309317.413,-9.874624921,1.019980926,0.999046312
2309327.179,-9.798052926,0.979278764,0.963938189
2309336.945,-9.951152567,1.020771789,1.038589472
2309346.71,-9.756990998,0.824479542,1.223977111
2309356.476,-9.758869841,1.060721857,1.036092826
2309366.241,-9.950257496,0.942561932,1.128096578
2309376.007,-9.913045986,0.980061873,1.003093671
2309385.773,-9.75954316,0.939375218,0.968760903
2309395.538,-9.952317772,0.978441379,0.92206896
2309405.304,-9.760393881,0.977673777,0.883688834
2309415.07,-9.759365759,0.779730021,0.986501051
2309424.835,-9.683241299,0.778132787,0.906639374
2309434.601,-9.530411792,0.616099494,0.804974685
2309444.366,-9.953309607,0.416457708,0.82288541
2309454.132,-10.29752677,0.460331077,1.016553852
2309463.898,-11.14416909,0.459354128,0.967706419
2309473.663,-11.52635575,0.784211579,1.210578958
2309483.429,-12.83157126,1.709165174,1.458258705
2309493.195,-9.561180402,-0.12851465,1.574267482
2309502.96,-10.87038341,0.748463942,1.423197103
2309512.726,-11.64004652,1.067599265,1.379963248
2309522.491,-10.8317406,0.588826499,1.441324928
2309532.257,-8.717178944,0.067180573,1.359028634
2309542.023,-8.407891264,-0.249628682,1.518565901
2309551.788,-10.95139045,0.780296031,1.014801548
2309561.554,-8.833111426,0.186084839,1.304241973
2309571.32,-8.526863762,0.423195553,1.159777628
2309581.085,-8.872782365,0.543666039,1.183301931
2309590.851,-9.451690819,0.459695285,0.984764253
2309600.616,-9.064299039,0.905248075,1.262403759
2309610.382,-8.989871989,1.340256023,1.012801129
2309620.148,-8.569215882,1.375414389,0.770719453
2309629.913,-8.798573035,1.538238546,0.911927303
2309639.679,-9.415362285,1.655429276,0.771463795
2309649.445,-9.571731758,1.730382638,0.519131911
2309659.21,-9.494171958,1.891656083,0.582804153
2309668.976,-9.418450683,1.889252479,0.46262396
2309678.741,-9.612660634,1.765447962,0.272398099
2309688.507,-9.690043032,1.44452932,0.226466005
2309698.273,-9.919851752,1.286450342,0.322517116
2309708.038,-9.921867678,1.282418491,0.120924535
2309717.804,-10.03668334,1.123556403,0.177820164
2309727.57,-10.34387445,0.644558784,0.227939181
2309737.335,-10.57421941,0.605407333,0.270366666
2309747.101,-10.64886821,0.369955882,0.497794112
2309756.866,-10.80488288,0.12561885,0.280942523
2309766.632,-10.83945353,-0.106599366,0.670031712
2309776.398,-10.7274642,-0.313389934,0.330503284
2309786.163,-10.64686035,-0.346028394,0.698580323
2309795.929,-10.45283183,-0.422586743,0.870662852
2309805.695,-10.37379638,-0.498361983,1.081900863
2309815.46,-10.68022144,-0.575827499,1.208625061
2309825.226,-10.29498267,-0.374580726,1.27096369
2309834.991,-10.44655827,-0.250039621,1.498018965
2309844.757,-10.06284354,-0.131840928,1.407953603
2309854.523,-10.13927845,0.1491354,1.456770022
2309864.288,-10.10094609,0.268877052,1.443852589
2309874.054,-9.870149566,0.628931637,1.446581843
2309883.82,-9.86956898,0.47009281,1.504640506
2309893.585,-9.907316725,0.551520396,1.576019787
2309903.351,-9.756184628,0.826092283,1.304614144
2309913.116,-9.832486489,0.987334713,1.366735673
2309922.882,-9.908389198,0.789375451,1.468772534
2309932.648,-9.796573236,1.102238143,1.111907143
2309942.413,-9.910356741,1.105440363,1.272018174
2309952.179,-9.871665542,1.265899684,1.294984222
2309961.945,-9.948418971,1.10623898,1.311949013
2309971.71,-9.872653346,1.063924077,1.196203857
2309981.476,-9.950971133,1.221134656,1.056732805
2309991.241,-10.21973715,1.142064153,1.103207648
2310001.007,-10.06596419,1.221917766,1.095888287
2310010.773,-10.14262892,0.982434463,1.121723151
2310020.538,-10.25865011,1.181161328,1.058066417
2310030.304,-10.1059093,1.098950633,0.947531654
2310040.07,-10.10644957,0.857870097,0.893504842
2310049.835,-10.10367162,0.903425988,1.171299419
2310059.601,-9.796351484,0.902681647,1.134082327
2310069.366,-9.95128965,0.780497624,1.024881177
2310079.132,-9.720585859,0.860366743,1.018337171
2310088.898,-9.796262784,0.822859048,1.142952401
2310098.663,-9.717767595,0.506003272,1.3001636
2310108.429,-9.643743729,0.940204849,1.010242454
2310118.195,-9.642671257,0.702349794,1.117489707
2310127.96,-9.796577268,0.742230079,1.111503958
2310137.726,-9.642759958,0.782172393,1.108619634
2310147.491,-9.720005272,0.701527917,1.076395835
2310157.257,-9.681269723,0.822075938,1.103796919
2310167.023,-9.835849054,0.740609585,1.030479248
2310176.788,-9.643969513,0.779753282,0.987664085
2310186.554,-9.951958937,1.019159049,0.95795244
2310196.32,-9.910538175,0.905077497,1.253874842
2310206.085,-9.875745776,0.937739217,0.886960837
2310215.851,-9.875657076,0.857916618,0.89583091
2310225.616,-10.02880107,0.939320943,0.966047157
2310235.382,-9.953124142,0.976828639,0.841431928
2310245.148,-10.1057319,0.939305436,0.965271801
2310254.913,-10.10286525,0.905038729,1.251936452
2310264.679,-10.10474813,0.78127298,1.063648981
2310274.445,-10.06462562,0.744594915,1.229745761
2310284.21,-10.17948563,0.625644127,1.282206353
2310293.976,-10.14361673,0.780458856,1.022942786
2310303.741,-10.21737046,0.466797547,1.339877339
2310313.507,-9.950305878,0.622465167,1.123258356
2310323.273,-10.10452637,0.581716483,1.085824165
2310333.038,-10.25713413,0.544193281,1.209664038
2310342.804,-10.06565777,0.582530607,1.126530359
2310352.57,-9.911570329,0.743013189,1.15065944
2310362.335,-10.02544253,0.826038008,1.301900398
2310372.101,-9.911929163,0.702295519,1.114775961
2310381.866,-9.911659029,0.822835787,1.141789367
2310391.632,-9.950168795,0.862739333,1.136966652
2310401.398,-9.873282315,0.902666139,1.133306971
2310411.163,-9.796621618,0.782141378,1.107068921
2310420.929,-9.796573236,1.102238143,1.111907143
2310430.695,-9.951196917,1.060683089,1.034154435
2310440.46,-9.872834779,0.86356121,1.178060524
2310450.226,-9.605411365,1.0599465,0.997325022
2310459.991,-9.835264435,0.941778822,1.088941096
2310469.757,-9.680060168,0.824495049,1.224752468
2310479.523,-10.10353857,0.783692091,1.18460453
2310489.288,-9.680507703,0.863599978,1.179998915
2310499.054,-9.836965877,1.018375939,0.918796958
2310508.82,-10.02593845,0.545046172,1.252308623
2310518.585,-9.95214037,0.818796182,0.939809107
2310528.351,-10.10336117,0.624046894,1.202344677
2310538.116,-9.873060563,0.703109643,1.155482155
2310547.882,-10.02665612,0.463610833,1.180541664
2310557.648,-10.06529894,0.623248277,1.162413839
2310567.413,-10.0650288,0.743788545,1.189427244
2310577.179,-9.873016213,0.663198344,1.159917192
2310586.945,-10.0258054,0.425312275,1.265613733
2310596.71,-9.989400262,0.461199476,1.059973793
2310606.476,-9.989622014,0.660755972,1.037798609
2310616.241,-9.988279407,0.543441185,1.172059268
2310626.007,-10.1025548,0.625659634,1.282981709
2310635.773,-10.10416754,0.622434153,1.121707644
2310645.538,-10.06417808,0.705489986,1.274499314
2310655.304,-9.835490219,0.781327255,1.066362727
2310665.07,-9.796532918,0.70231878,1.115938995
2310674.835,-9.796577268,0.742230079,1.111503958
2310684.601,-9.871584905,0.466060958,1.303047925
2310694.366,-10.06395633,0.50593349,1.296674498
2310704.132,-10.14026626,-0.052840207,1.357989657
2310713.898,-10.06423453,-0.334622906,1.268854722
2310723.663,-9.98510634,-0.13021268,1.489365991
2310733.429,-10.48564862,-0.051297248,1.435137587
2310743.195,-10.67743543,0.18974452,1.487226009
2310752.96,-11.02509983,0.426723423,1.336171137
2310762.726,-10.68119312,0.662229149,1.111457437
2310772.491,-10.71786839,0.505801679,1.290083971
2310782.257,-10.25843239,0.621596768,1.079838416
2310792.023,-10.06292821,0.307989734,1.399486714
2310801.788,-9.256497096,0.425467346,1.273367294
2310811.554,-9.13944376,0.388804789,1.44023943
2310821.32,-9.138996224,0.34969986,1.484992983
2310831.085,-9.330871733,0.670564227,1.528211331
2310840.851,-9.253759469,0.8709426,1.547130019
2310850.616,-9.215608538,0.790321385,1.516069255
2310860.382,-9.061388042,0.831070069,1.553503446
2310870.148,-9.061388042,0.831070069,1.553503446
2310879.913,-9.291285463,0.75281369,1.640684484
2310889.679,-9.675758182,0.953099021,1.654951036
2310899.445,-9.71682011,1.107898242,1.394912113
2310909.21,-9.754075969,1.1103096,1.515479984
2310918.976,-9.757031317,1.224398905,1.21994526
2310928.741,-9.872157428,1.344915913,1.245795632
2310938.507,-9.680414971,1.143785443,1.189272173
2310948.273,-9.681491475,1.021632435,1.081621735
2310958.038,-9.759857645,0.858746249,0.937312461
2310967.804,-9.799040729,0.777303156,0.865157824
2310977.57,-10.06852442,0.616797314,0.839865708
2310987.335,-10.37553007,0.698170625,0.908531243
2310997.101,-10.45506145,0.492954029,0.647701457
2311006.866,-10.56902639,0.295793383,0.789669156
2311016.632,-10.72544424,0.050649981,0.53249905
2311026.398,-10.6846968,-0.184778209,0.76108953
2311036.163,-10.60714103,-0.383512828,0.824358587
2311045.929,-10.53092787,-0.46493266,0.753366984
2311055.695,-10.49018043,-0.700360851,0.981957464
2311065.46,-10.71904569,-0.616552922,1.172353904
2311075.226,-10.25656564,-0.694669737,1.266513146
2311084.991,-10.25652129,-0.734581036,1.270948183
2311094.757,-10.25494887,-0.331436192,1.428190396
2311104.523,-10.10149039,-0.332211548,1.389422592
2311114.288,-9.90902623,-0.091898614,1.405069278
2311124.054,-9.947580346,-0.012083769,1.395811526
2311133.82,-9.985461143,0.189077714,1.453885697
2311143.585,-9.794029138,0.26732634,1.366316981
2311153.351,-9.717723244,0.466091973,1.304598637
2311163.116,-9.48683802,0.746323959,1.316197964
2311172.882,-9.719154552,0.663229358,1.161467904
2311182.648,-9.911929163,0.702295519,1.114775961
2311192.413,-9.832131686,0.668044319,1.402215968
2311202.179,-9.913360471,0.899432905,0.971645228
2311211.945,-9.952676607,0.93772371,0.886185481
2311221.71,-9.797964225,0.899456165,0.972808262
2311231.476,-9.838578617,1.015150458,0.757522892
2311241.241,-10.06735518,1.019135788,0.956789406
2311251.007,-10.06905662,1.095732905,0.786645267
2311260.773,-10.06780272,1.058240717,0.912035852
2311270.538,-10.06766967,0.938506819,0.925340963
2311280.304,-10.10842114,0.813926946,0.696347297
2311290.07,-10.10891303,0.892943174,0.647158708
2311299.835,-9.954289347,0.934498228,0.724911416
2311309.601,-9.877136765,0.734957239,0.747861956
2311319.366,-9.993295031,0.693409939,0.670496926
2311329.132,-9.877721384,0.533788002,0.689400107
2311338.898,-9.608911012,0.572947206,0.6473603
2311348.663,-9.645497585,0.336697138,0.834856908
2311358.429,-9.760756748,0.576948043,0.847402169
2311368.195,-9.684946772,0.494721841,0.73609205
2311377.96,-9.724129857,0.413278748,0.663937413
2311387.726,-9.684902421,0.454810542,0.740527087
2311397.491,-9.722650167,0.536238127,0.811906368
2311407.257,-9.492393912,0.655212176,0.76060881
2311417.023,-9.801326789,0.652731037,0.636551836
2311426.788,-9.954067596,0.734941732,0.7470866
2311436.554,-9.798190009,0.739004598,0.950229893
2311446.32,-9.991323455,0.737353089,0.86765447
2311456.085,-9.722557435,0.816423593,0.821179627
2311465.851,-9.7998471,0.775690416,0.784520791
2311475.616,-10.06780675,0.698232653,0.911632667
2311485.382,-9.87592721,0.73737635,0.868817504
2311495.148,-10.22122088,0.65909671,0.954835508
2311504.913,-10.106631,0.65750723,0.87536151
2311514.679,-10.10757042,0.775628387,0.781419367
2311524.445,-10.18400937,0.696596652,0.829832601
2311534.21,-10.14290309,0.501886131,1.09430656
2311543.976,-9.989577664,0.620844673,1.042233646
2311553.741,-10.02786568,0.461191722,1.059586115
2311563.507,-10.06633109,0.461183969,1.059198437
2311573.273,-10.18159429,0.34142681,1.071340513
2311583.038,-9.950576012,0.501924899,1.09624495
2311592.804,-9.874137067,0.580956634,1.047831717
2311602.57,-9.874092717,0.541045335,1.052266754
2311612.335,-10.02719236,0.582538361,1.126918037
2311622.101,-9.988279407,0.543441185,1.172059268
2311631.866,-9.873330697,0.582569375,1.128468749
2311641.632,-9.834909632,0.622488428,1.124421391
2311651.398,-9.833611376,0.54508494,1.254247013
2311661.163,-9.759277058,0.699907422,0.995371124
2311670.929,-10.0650288,0.743788545,1.189427244
2311680.695,-9.949676909,0.783723105,1.186155242
2311690.46,-9.988993045,0.82201391,1.100695494
2311700.226,-10.06637141,0.861103332,1.055166585
2311709.991,-9.949991394,0.703094136,1.154706799
2311719.757,-10.0288938,0.659135478,0.956773898
2311729.523,-9.911034092,0.624085661,1.204283067
2311739.288,-10.06682298,0.540200197,1.010009847
2311749.054,-9.875838509,0.657553752,0.877687578
2311758.82,-10.10524404,0.500281144,1.014057206
2311768.585,-10.1054658,0.69983764,0.991882022
2311778.351,-10.10452637,0.581716483,1.085824165
2311788.116,-10.18141285,0.541789677,1.089483845
2311797.882,-10.06834702,0.457152117,0.857605855
2311807.648,-10.02625294,0.464417204,1.22086018
2311817.413,-9.989174478,0.621651043,1.082552162
2311827.179,-9.760442263,0.657577012,0.878850612
2311836.945,-9.874810387,0.459609996,0.980499795
2311846.71,-9.951426733,0.540223458,1.011172881
2311856.476,-10.03086537,0.615192327,0.759616354
2311866.241,-10.2189832,0.463572065,1.178603274
2311876.007,-9.874004016,0.461222737,1.061136827
2311885.773,-9.911348577,0.543456692,1.172834624
2311895.538,-10.10439332,0.461982586,1.099129275
2311905.304,-9.952410505,0.698255914,0.912795701
2311915.07,-10.10475216,0.421264916,1.063245796
2311924.835,-9.951471083,0.580134757,1.006737844
2311934.601,-9.912916967,0.500319912,1.015995596
2311944.366,-9.874270119,0.700690532,1.034526606
2311954.132,-9.874137067,0.580956634,1.047831717
2311963.898,-9.952321804,0.618433316,0.921665775
2311973.663,-9.988009273,0.663981453,1.199072674
2311983.429,-9.874673304,0.699884162,0.99420809
2311993.195,-10.14460453,0.578483248,0.924162422
2312002.96,-9.911171175,0.383811495,1.190574771
2312012.726,-9.873375047,0.622480674,1.124033712
2312022.491,-10.14290309,0.501886131,1.09430656
2312032.257,-9.758740822,0.580979895,1.048994751
2312042.023,-9.951471083,0.580134757,1.006737844
2312051.788,-10.06673428,0.460377598,1.018879921
2312061.554,-9.990654168,0.498691664,0.934583207
2312071.32,-10.02799873,0.58092562,1.046281005
2312081.085,-9.909735836,0.546682174,1.334108689
2312090.851,-9.952007319,0.699062284,0.953114218
2312100.616,-10.02849061,0.659941848,0.997092415
2312110.382,-10.06565777,0.582530607,1.126530359
2312120.148,-10.03019609,0.376530902,0.826545091
2312129.913,-9.989714746,0.380570507,1.02852535
2312139.679,-9.949995425,0.343086072,1.154303614
2312149.445,-10.10430462,0.382159987,1.107999349
2312159.21,-10.0287164,0.499490281,0.974514046
2312168.976,-10.02876075,0.53940158,0.970079009
2312178.741,-9.912380731,0.381392384,1.069619223
2312188.507,-9.758652121,0.501157296,1.057864824
2312198.273,-9.990654168,0.498691664,0.934583207
2312208.038,-9.795637847,0.624108922,1.205446101
2312217.804,-10.02817613,0.740570817,1.028540857
2312227.57,-10.7191223,0.543293868,1.164693385
2312237.335,-11.14130244,0.425087421,1.25437107
2312247.101,-11.64238903,-0.097085747,1.145712669
2312256.866,-10.95108806,-0.219099191,1.045040435
2312266.632,-9.292869981,-0.730355346,1.482232715
2312276.398,-9.44927574,0.104525443,1.226272165
2312286.163,-11.17820753,-0.251799679,1.41001605
2312295.929,-9.641159312,-0.294626317,1.268684143
2312305.695,-9.179485629,-0.374355873,1.282206353
2312315.46,-9.025224814,-0.733526552,1.323672397
2312325.226,-9.101345243,-0.371921255,1.403937258
2312334.991,-9.791033472,-0.246682329,1.665883557
2312344.757,-10.02124135,-0.045559613,1.722019337
2312354.523,-10.0991116,0.072546037,1.627301838
2312364.288,-9.981965528,0.316068945,1.803447233
2312374.054,-9.907945694,0.390262458,1.513122902
2312383.82,-9.98218728,0.515625441,1.781272049
2312393.585,-9.829216658,0.953874377,1.69371884
2312403.351,-9.830067378,0.992172935,1.608646771
2312413.116,-9.715969389,1.069599684,1.479984183
2312422.882,-9.604512262,1.341744706,1.087235313
2312432.648,-9.337221899,1.657863894,0.8931947
2312442.413,-9.567566855,1.618712444,0.935622184
2312452.179,-9.5314762,1.573970676,0.698533802
2312461.945,-9.686277283,1.692060819,0.603040947
2312471.71,-9.763345196,1.451771146,0.588557295
2312481.476,-9.689236662,1.446142061,0.307103037
2312491.241,-9.88237414,1.084482489,0.224124429
2312501.007,-9.538874648,0.959173781,-0.041310972
2312510.773,-9.731294457,0.678949548,-0.052522621
2312520.538,-9.765417568,0.407626402,0.381320121
2312530.304,-9.729508347,0.162521768,0.126088406
2312540.07,-10.11281989,0.045129446,0.256472285
2312549.835,-9.919420344,-0.192686841,0.365657928
2312559.601,-10.22781698,-0.314095508,0.295224582
2312569.366,-10.26386329,-0.30926504,0.536748002
2312579.132,-10.22226109,-0.222983725,0.850813736
2312588.898,-10.1848238,-0.025032216,0.748389198
2312598.663,-10.14353609,-0.01937987,1.03100649
2312608.429,-10.33568576,-0.179063835,1.046808247
2312618.195,-10.29448675,-0.093588891,1.320555465
2312627.96,-10.40912098,-0.052088111,1.395594427
2312637.726,-10.21526986,0.030998736,1.549936808
2312647.491,-10.25512627,-0.171790995,1.410450249
2312657.257,-10.06029138,-0.246736604,1.663169811
2312667.023,-10.02263233,-0.248341591,1.582920456
2312676.788,-9.908086809,-0.210019772,1.499011421
2312686.554,-9.715981484,-0.010424507,1.478774627
2312696.32,-10.10112752,0.068514185,1.425709257
2312706.085,-9.638554736,0.270582835,1.529141758
2312715.851,-9.485273662,0.429452676,1.472633807
2312725.616,-9.716332256,0.66887395,1.443697518
2312735.382,-9.945507975,1.032060974,1.6030487
2312745.148,-10.67621378,1.272187822,1.609391113
2312754.913,-11.71473161,1.592075241,1.603762028
2312764.679,-12.13959697,1.708498368,1.424918394
2312774.445,-11.17644158,1.431732223,1.586611151
2312784.21,-10.29079761,1.313789398,1.689469889
2312793.976,-11.17438937,0.675836648,1.791832399
2312803.741,-9.94645546,0.430166004,1.508300187
2312813.507,-9.867379684,-0.045528599,1.72357005
2312823.273,-9.673669683,-0.562723981,1.863800951
2312833.038,-9.788795794,-0.442206974,1.889651322
2312842.804,-9.522448885,-0.367974692,1.601265381
2312852.57,-9.519670939,-0.322418801,1.879059958
2312862.335,-9.48483419,-0.32966838,1.51658099
2312872.101,-9.602379413,-0.213989595,1.300520264
2312881.866,-9.371228086,-0.173225404,1.338729812
2312891.632,-9.181275771,-0.217936157,1.103192141
2312901.398,-8.990380002,-0.020760004,0.961999798
2312911.163,-8.955450521,0.252175882,0.608794089
2312920.929,-9.108727563,0.453314105,0.665705225
2312930.695,-9.109396851,0.69197553,0.598776488
2312940.46,-9.378118521,0.572993727,0.649686368
2312950.226,-9.498534422,0.362931156,0.146557807
2312959.991,-9.806302094,0.402780427,0.139021346
2312969.757,-10.03794531,0.441032464,0.051623208
2312979.523,-10.22973615,0.322066169,0.103308444
2312989.288,-10.15450676,0.398678793,-0.066060338
2312999.054,-10.19288347,0.318848441,-0.057577943
2313008.82,-10.42157134,0.243011173,0.150558644
2313018.585,-10.42049886,0.005156118,0.257805897
2313028.351,-10.53445977,0.168003536,0.400176781
2313038.116,-10.72831089,0.084916688,0.245834399
2313047.882,-10.49563552,0.208728959,0.436447939
2313057.648,-10.41642266,-0.026691478,0.665426097
2313067.413,-10.41557194,-0.064990037,0.750498166
2313077.179,-10.22114024,-0.140742016,0.962899211
2313086.945,-10.18146527,-0.138315151,1.084242438
2313096.71,-10.18097338,-0.217331379,1.133431028
2313106.476,-9.913058082,-0.099962318,1.001884115
2313116.241,-9.947447295,-0.131817667,1.409116637
2313126.007,-9.871814721,-0.054398673,1.28006637
2313135.773,-9.831736565,-0.051165438,1.441728114
2313145.538,-10.02401526,0.268892559,1.444627945
2313155.304,-9.795553178,0.18427826,1.21391299
2313165.07,-9.98917851,0.26164298,1.082148977
2313174.835,-9.989759097,0.420481806,1.024090313
2313184.601,-10.02737379,0.382175494,1.108774705
2313194.366,-9.873419398,0.662391974,1.119598676
2313204.132,-10.18217084,0.860273701,1.013685035
2313213.898,-10.25892427,0.700612997,1.030649826
2313223.663,-10.22305537,0.855427725,0.771386259
2313233.429,-10.10895738,0.932854473,0.642723671
2313243.195,-10.14684221,0.774007893,0.700394656
2313252.96,-10.18615834,0.812298698,0.614934909
2313262.726,-10.22430927,0.892919913,0.645995674
2313272.491,-10.07089515,0.932055857,0.602792833
2313282.257,-9.957466446,1.24814403,0.407201507
2313292.023,-10.07116528,0.811515589,0.575779427
2313301.788,-9.995758492,0.728483016,0.424150791
2313311.554,-9.881660503,0.805909764,0.295488203
2313321.32,-9.763804827,0.410851884,0.542594186
2313331.085,-9.764518465,0.689424608,0.471230413
2313340.851,-9.649392353,0.568907601,0.445380041
2313350.616,-9.611418824,0.647931583,0.396579129
2313360.382,-9.495127507,0.569744985,0.487249269
2313370.148,-9.686962698,0.490689989,0.534499469
2313379.913,-9.648005396,0.411681515,0.584075737
2313389.679,-9.649658456,0.808375396,0.41876982
2313399.445,-9.761921953,0.534617633,0.730881657
2313409.21,-9.761204283,0.616052972,0.802648616
2313418.976,-9.879733278,0.889764214,0.488210711
2313428.741,-9.798952029,0.697480558,0.874027897
2313438.507,-9.880047762,0.809135245,0.456762268
2313448.273,-9.993383731,0.773232537,0.661626852
2313458.038,-9.993069247,0.853861506,0.693075295
2313467.804,-9.878838206,0.811554356,0.577717817
2313477.57,-10.06991138,0.7740234,0.701170012
2313487.335,-10.03055089,0.695821296,0.791064797
2313497.101,-10.18517457,0.654266242,0.713312089
2313506.866,-10.1842795,0.576056384,0.802819195
2313516.632,-10.14626162,0.615169066,0.75845332
2313526.398,-10.06915339,0.455539376,0.776968823
2313536.163,-10.22162809,0.298282276,0.914113807
2313545.929,-10.14545928,0.256773743,0.838687167
2313555.695,-10.22131361,0.378911245,0.945562249
2313565.46,-10.03028479,0.4563535,0.817675017
2313575.226,-10.06798818,0.497869787,0.893489335
2313584.991,-10.10672373,0.377321765,0.866088251
2313594.757,-9.876019942,0.457190885,0.859544246
2313604.523,-9.95192265,0.259231622,0.961581106
2313614.288,-9.951829918,0.539417087,0.970854365
2313624.054,-9.760712397,0.537036744,0.851837206
2313633.82,-9.874899087,0.539432594,0.971629721
2313643.585,-9.876152993,0.576924783,0.846239135
2313653.351,-9.875882859,0.697465051,0.873252541
2313663.116,-9.800250285,0.774884045,0.744202275
2313672.882,-9.839929288,0.412449117,0.622455863
2313682.648,-9.803032263,0.36932009,0.466004513
2313692.413,-9.802810511,0.169763594,0.488179697
2313702.179,-10.07117335,0.091499461,0.574973056
2313711.945,-12.0547113,0.004423562,2.221178076
2313721.71,-10.72151722,-1.301495972,0.925201399
2313731.476,-11.29629302,-0.37720143,1.139928512
2313741.241,-10.72101727,-0.660496073,0.975196359
2313751.007,-10.18307801,-0.141540633,0.922968373
2313760.773,-10.9914807,-0.302961395,0.851930249
2313770.538,-10.10668745,-0.382605662,0.869716917
2313780.304,-9.642368868,-0.297045428,1.147728594
2313790.07,-9.489716762,-0.299433525,1.028323758
2313799.835,-9.293894071,-0.172403526,1.379823684
2313809.601,-9.638421685,0.150848937,1.542446869
2313819.366,-9.557906539,0.198033077,1.901653835
2313829.132,-9.787441092,0.520502431,2.025121537
2313838.898,-9.90229707,0.761559706,2.077985315
2313848.663,-9.865444395,0.758341979,1.917098928
2313858.429,-9.59640824,0.95795275,1.89763749
2313868.195,-9.554136757,0.805572639,2.278631962
2313877.96,-9.596005055,0.95875912,1.937956006
2313887.726,-9.21506827,1.031401921,1.570096067
2313897.491,-9.254876292,1.148708955,1.435447729
2313907.257,-9.293386058,1.1886125,1.430625015
2313917.023,-9.409499973,1.1071539,1.357695021
2313926.788,-9.640248114,1.06719608,1.35980399
2313936.554,-9.413128639,1.099896567,0.994828375
2313946.32,-9.567437836,1.138970482,0.94852411
2313956.085,-10.02996627,0.896990533,0.849526645
2313965.851,-10.10716724,0.776434758,0.821737883
2313975.616,-10.22529708,0.690944306,0.547215309
2313985.382,-9.801689656,0.252005303,0.600265172
2313995.148,-10.03266358,0.051595915,0.579795771
2314004.913,-10.4166041,-0.227054345,0.647282765
2314014.679,-10.60973754,-0.228705853,0.564707342
2314024.445,-10.53052468,-0.46412629,0.7936855
2314034.21,-10.80027851,-0.7451724,0.741379979
2314043.976,-10.4923294,-0.584658805,0.767059772
2314053.741,-10.72187202,-0.982205578,0.889721104
2314063.507,-10.53097625,-0.785029425,0.748528762
2314073.273,-10.25759779,-0.856734045,1.163297744
2314083.038,-10.40984671,-0.853539578,1.323021097
2314092.804,-10.37092973,-0.53262869,1.368565514
2314102.57,-10.17488529,-0.605155188,1.742240624
2314112.335,-10.09947446,-0.328179697,1.591015174
2314122.101,-9.868948074,-0.08866538,1.566731021
2314131.866,-9.984703155,-0.12940631,1.529684508
2314141.632,-9.75449125,0.029479038,1.473951912
2314151.398,-9.984340288,0.271319423,1.565971172
2314161.163,-9.905841068,0.314471711,1.723585557
2314170.929,-9.94569344,0.471690044,1.584502183
2314180.695,-9.985009576,0.509980849,1.499042435
2314190.46,-9.755918526,0.586624487,1.331224365
2314200.226,-10.06641979,0.541006567,1.050328363
2314209.991,-9.873733882,0.581763005,1.088150233
2314219.757,-10.06440387,0.545038419,1.251920945
2314229.523,-10.06408938,0.625667388,1.283369387
2314239.288,-10.14393121,0.699829887,0.991494344
2314249.054,-10.21947508,0.542588294,1.129414684
2314258.82,-10.33437944,0.463548805,1.177440239
2314268.585,-10.22081769,0.65990308,0.995154024
2314278.351,-10.22099912,0.459540214,0.977010692
2314288.116,-10.18217487,0.500265637,1.01328185
2314297.882,-10.03015174,0.336619603,0.830980128
2314307.648,-10.10681647,0.0971363,0.856814992
2314317.413,-10.02791406,0.141094958,1.054747893
2314327.179,-9.910772022,0.024609802,1.230490103
2314336.945,-10.06754468,0.098756794,0.937839703
2314346.71,-9.718356245,-0.055174029,1.241298566
2314356.476,-9.798375474,0.178633668,0.931683376
2314366.241,-9.873201678,0.102827413,1.141370674
2314376.007,-9.718936832,0.103664798,1.183239903
2314385.773,-9.680785901,0.023043583,1.152179138
2314395.538,-9.680560117,0.18349515,1.174757507
2314405.304,-9.874096749,0.181037271,1.051863568
2314415.07,-9.796807084,0.221770448,1.088522404
2314424.835,-9.718174812,0.145188838,1.259441899
2314434.601,-9.681140704,0.342333977,1.116698844
2314444.366,-9.951382382,0.500312158,1.015607918
2314454.132,-9.797250587,0.620883441,1.044172036
2314463.898,-9.990339683,0.579320633,0.96603165
2314473.663,-9.989174478,0.621651043,1.082552162
2314483.429,-10.18293689,0.458741597,0.937079854
2314493.195,-10.02705931,0.462804463,1.140223147
2314502.96,-10.10313942,0.424490397,1.224519861
2314512.726,-10.18217487,0.500265637,1.01328185
2314522.491,-10.10461911,0.301531018,1.076550906
2314532.257,-9.950757445,0.301562032,1.078101618
2314542.023,-10.18069922,0.263216952,1.160847619
2314551.788,-10.33456088,0.263185938,1.159296907
2314561.554,-9.988642274,0.142715452,1.135772604
2314571.32,-10.06382731,0.026191528,1.309576423
2314581.085,-9.833929892,0.104447908,1.222395385
2314590.851,-10.02666015,0.10360277,1.180138479
2314600.616,-9.989448644,0.141102711,1.055135571
2314610.382,-9.872262256,-0.015293744,1.235312817
2314620.148,-10.06629077,0.061264606,1.063230289
2314629.913,-10.02473293,0.18745722,1.372860986
2314639.679,-10.02383786,0.109247362,1.462368093
2314649.445,-9.717594225,-0.013649989,1.317500562
2314659.21,-9.872080823,0.185069123,1.25345615
2314668.976,-9.910993774,0.224166298,1.208314919
2314678.741,-9.795597528,0.224189559,1.209477953
2314688.507,-10.10359098,0.103587262,1.179363123
2314698.273,-10.10274026,0.065288704,1.264435192
2314708.038,-10.10188954,0.026990145,1.349507261
2314717.804,-10.2576744,0.303112745,1.155637226
2314727.57,-10.40893955,0.148274755,1.413737759
2314737.335,-10.25677933,0.224902887,1.245144333
2314747.101,-10.41135866,0.143436533,1.171826661
2314756.866,-10.10274026,0.065288704,1.264435192
2314766.632,-9.948701201,-0.094325479,1.283726051
2314776.398,-9.798335155,-0.221285695,0.935715227
2314786.163,-9.834558861,-0.05681003,1.1594985
2314795.929,-9.912969381,-0.179784916,1.010754189
2314805.695,-9.949822056,-0.176567188,1.171640576
2314815.46,-10.56374466,-0.093643166,1.317841719
2314825.226,-10.40862909,-0.13110434,1.444783017
2314834.991,-10.13816163,-0.128630954,1.568452312
2314844.757,-10.17912679,0.666361797,1.318089833
2314854.523,-11.17506672,0.194481946,1.724097292
2314864.288,-10.36608748,-0.162944182,1.852790894
2314874.054,-10.82462438,0.003058935,2.152946741
2314883.82,-10.09316058,-0.555551937,2.222403139
2314893.585,-10.20743597,-0.473333488,2.33332558
2314903.351,-9.938847356,-0.234617788,2.269110589
2314913.116,-9.785030045,-0.194675475,2.266226264
2314922.882,-9.555265676,0.003314802,2.165740116
2314932.648,-9.479810503,0.240378994,2.018949703
2314942.413,-9.55736627,0.439113613,1.955680646
2314952.179,-9.597577477,0.555614276,1.780713793
2314961.945,-9.136706132,0.834280043,1.714002155
2314971.71,-9.059908353,0.954029448,1.701472401
2314981.476,-9.292535337,1.150313942,1.515697084
2314991.241,-9.370050786,0.949129198,1.456459879
2315001.007,-9.410616796,1.384920255,1.246012731
2315010.773,-9.491353694,1.537292612,0.864630582
2315020.538,-9.455085638,1.332905647,0.645282346
2315030.304,-9.495478278,1.249043443,0.45217216
2315040.07,-9.421684228,1.162785389,0.139269459
2315049.835,-9.650956712,0.885778884,0.288944198
2315059.601,-9.731608941,0.598320579,-0.083971064
2315069.366,-9.962228063,0.078620797,-0.06896017
2315079.132,-9.924927853,0.03629814,-0.185093004
2315088.898,-10.19410109,-0.403586797,-0.179339862
2315098.663,-10.19316167,-0.521707954,-0.085397719
2315108.429,-10.1921779,-0.679740411,0.012979461
2315118.195,-10.42324052,-0.8003272,-0.016360013
2315127.96,-10.57307033,-0.792294511,0.385274437
2315137.726,-10.61001171,-0.709254185,0.537290751
2315147.491,-10.68331387,-0.702012359,0.899382041
2315157.257,-10.68053593,-0.656456468,1.177176618
2315167.023,-10.60346801,-0.416166795,1.19166027
2315176.788,-10.67802408,-0.371432781,1.428360975
2315186.554,-10.33116203,-0.25001636,1.499181999
2315196.32,-10.10014375,-0.089518271,1.524086437
2315206.085,-10.02276539,-0.128607693,1.569615346
2315215.851,-10.0990229,-0.007276562,1.636171912
2315225.616,-9.945830523,0.231415878,1.570793887
2315235.382,-9.869077094,0.391076582,1.553829096
2315245.148,-9.98456204,0.47087592,1.543795988
2315254.913,-9.98536841,0.469263179,1.463158956
2315264.679,-9.908256147,0.669641553,1.482077644
2315274.445,-9.946092593,0.830891737,1.544586852
2315284.21,-9.94819722,0.906682484,1.334124197
2315293.976,-10.02535383,0.746215409,1.310770471
2315303.741,-10.02660774,0.783707598,1.185379886
2315313.507,-9.912195266,0.941763315,1.08816574
2315323.273,-10.1058206,1.019128035,0.956401727
2315333.038,-9.951737185,0.819602552,0.980127624
2315342.804,-10.1848117,1.054991975,0.749598753
2315352.57,-10.22166841,0.698201639,0.910081955
2315362.335,-10.26022253,0.778016484,0.900824204
2315372.101,-10.18315865,0.658298093,0.91490467
2315381.866,-10.07054035,0.612765463,0.638273127
2315391.632,-9.992266909,0.495466183,0.773309142
2315401.398,-9.952414536,0.33824785,0.912392516
2315411.163,-10.06843572,0.536974716,0.848735782
2315420.929,-10.06668993,0.420466299,1.023314957
2315430.695,-9.799447946,0.416488722,0.824436122
2315440.46,-9.875483706,0.338263357,0.913167872
2315450.226,-9.72130756,0.418923341,0.946167027
2315459.991,-9.682753445,0.339108496,0.955424779
2315469.757,-9.64442108,0.458850147,0.942507346
2315479.523,-9.799089112,0.457206392,0.860319602
2315489.288,-9.950217177,0.542642569,1.13212843
2315499.054,-9.605641181,0.539486869,0.974343467
2315508.82,-9.720678592,0.580181278,1.009063913
2315518.585,-9.798371442,0.538641731,0.932086561
2315528.351,-9.95281369,0.697449544,0.872477185
2315538.116,-9.913005668,0.58014251,1.007125522
2315547.882,-9.799758399,0.695867817,0.793390865
2315557.648,-10.06762935,0.538587456,0.929372814
2315567.413,-9.953261225,0.736554473,0.827723632
2315577.179,-10.29770417,0.619976274,0.998813705
2315586.945,-10.10461507,0.661539082,1.076954091
2315596.71,-10.10425624,0.702256751,1.112837571
2315606.476,-10.10475216,0.421264916,1.063245796
2315616.241,-10.14209672,0.503498872,1.174943593
2315626.007,-10.18065487,0.223305653,1.165282656
2315635.773,-10.14079846,0.426095384,1.304769215
2315645.538,-10.2546747,0.14911214,1.455606988
2315655.304,-10.14205237,0.463587573,1.17937863
2315665.07,-10.21826956,0.184999341,1.249967047
2315674.835,-10.06333139,0.307183364,1.359168198
2315684.601,-10.06324269,0.227360765,1.368038272
2315694.366,-10.13999612,0.067700061,1.385003063
2315704.132,-10.02598683,0.224949408,1.247470401
2315713.898,-10.17868329,0.267248804,1.362440201
2315723.663,-10.02611989,0.344683306,1.23416529
2315733.429,-10.14039528,0.426901755,1.345087732
2315743.195,-9.949189055,0.344698813,1.234940646
2315752.96,-9.832805006,0.546697681,1.334884045
2315762.726,-9.835179766,0.50194816,1.097407985
2315772.491,-9.908885115,0.508383615,1.419180759
2315782.257,-10.06601661,0.541812938,1.09064688
2315792.023,-9.795593496,0.584197623,1.209881138
2315801.788,-10.02557962,0.585763842,1.288192102
2315811.554,-9.950842114,0.741392695,1.06963473
2315821.32,-10.06395633,0.50593349,1.296674498
2315831.085,-9.797968257,0.539448102,0.972405077
2315840.851,-9.872346925,0.424536919,1.226845929
2315850.616,-10.10322812,0.504312996,1.215649787
2315860.382,-9.989400262,0.461199476,1.059973793
2315870.148,-10.14151613,0.344660045,1.233002256
2315879.913,-10.02670047,0.503522133,1.176106627
2315889.679,-10.06785513,0.378135889,0.906794445
2315899.445,-9.987924604,0.224150791,1.207539563
2315909.21,-10.10506664,0.340635947,1.031797353
2315918.976,-9.987295636,0.385408729,1.270436448
2315928.741,-9.91233638,0.341481085,1.074054259
2315938.507,-9.912066246,0.462021353,1.101067665
2315948.273,-9.874141099,0.220948571,1.047428532
2315958.038,-9.796940135,0.341504346,1.075217294
2315967.804,-10.02786971,0.101183659,1.05918293
2315977.57,-10.10242578,0.145917673,1.295883635
2315987.335,-10.10202259,0.146724043,1.336202151
2315997.101,-10.06261776,0.028610639,1.430531972
2316006.866,-10.02424104,0.108440992,1.422049576
2316016.632,-9.833482357,0.065342979,1.267148938
2316026.398,-10.10157909,-0.25238895,1.380552519
2316036.163,-10.4076937,-0.609233561,1.538321974
2316045.929,-10.9842274,-0.648454793,1.577260357
2316055.695,-11.71439697,-0.527255472,1.637226396
2316065.46,-11.71246974,-0.443401022,1.829948904
2316075.226,-11.33314167,-0.013975638,1.301218084
2316084.991,-10.52361812,0.229686834,1.484341684
2316094.757,-10.33272235,0.426862987,1.343149341
2316104.523,-11.0237169,-0.090510727,1.474463647
2316114.288,-9.714594528,-0.167650594,1.617470323
2316124.054,-9.446546176,-0.17001543,1.499228521
2316133.82,-9.598706396,-0.246643561,1.667821947
2316143.585,-9.677516069,-0.010416754,1.479162305
2316153.351,-9.369655664,0.229919441,1.495972025
2316163.116,-9.09668039,0.15740845,1.870422492
2316172.882,-9.177731773,0.229151838,1.457591899
2316182.648,-9.062335528,0.229175099,1.458754933
2316192.413,-9.101292829,0.308183573,1.409178665
2316202.179,-8.98580385,0.588392299,1.419614958
2316211.945,-8.985711118,0.868577764,1.428888217
2316221.71,-9.103792577,1.103184077,1.159203864
2316231.476,-9.258194506,0.862072527,1.10362634
2316241.241,-9.218205051,0.94512836,1.25641801
2316251.007,-9.338439518,0.935428656,0.771432781
2316260.773,-9.301139308,0.893105999,0.655299947
2316270.538,-9.725694215,0.730150031,0.50750157
2316280.304,-9.843731324,0.924845045,0.242252254
2316290.07,-9.95899855,0.445079823,0.253991145
2316299.835,-9.805495724,0.404393168,0.219658378
2316309.601,-10.07623332,0.281379514,0.068975677
2316319.366,-10.26779838,0.322864786,0.143239283
2316329.132,-10.27012879,0.238203965,-0.089801741
2316338.898,-10.57856978,0.156706598,-0.164670125
2316348.663,-10.53768525,0.161552573,0.077628651
2316358.429,-10.53840292,0.080117234,0.005861692
2316368.195,-10.38431951,-0.119408248,0.029587588
2316377.96,-10.18917014,-0.113724888,0.313755592
2316387.726,-10.38141254,-0.553594318,0.32028409
2316397.491,-10.03177254,-0.386622006,0.668899692
2316407.257,-10.10776395,-0.50475867,0.762066479
2316417.023,-10.22190629,-0.542274119,0.886294031
2316426.788,-9.950813891,-0.738550859,1.072457026
2316436.554,-9.797262683,-0.45914075,1.042962481
2316446.32,-9.833667822,-0.495027952,1.248602421
2316456.085,-9.910461569,-0.254769293,1.26153536
2316465.851,-9.948253665,-0.133430408,1.328479604
2316475.616,-10.0252732,-0.053623317,1.318834175
2316485.382,-9.948608468,0.185859986,1.29299931
2316495.148,-10.10211129,0.226546642,1.327332077
2316504.913,-10.02724074,0.262441596,1.122079815
2316514.679,-10.10282493,0.505119366,1.255968303
2316524.445,-10.10443767,0.501893885,1.094694238
2316534.21,-10.14294744,0.54179743,1.089871523
2316543.976,-9.913364503,0.539424841,0.971242043
2316553.741,-9.94954789,0.303981143,1.199057167
2316563.507,-9.95259597,0.137884984,0.894249184
2316573.273,-9.91283633,-0.299518814,1.024059299
2316583.038,-10.10422802,-0.777686803,1.115659867
2316592.804,-11.02618843,-0.775453777,1.227311143
2316602.57,-12.33119428,-1.13008087,1.495956518
2316612.335,-13.10098641,-0.331203585,1.439820738
2316622.101,-13.40767758,-0.169201306,1.539934715
2316631.866,-11.94537089,-0.72766486,1.616756996
2316641.632,-10.45045707,-0.377837222,1.108138913
2316651.398,-12.1382342,-0.6087761,1.561194979
2316661.163,-10.64140122,-0.895110139,1.244493033
2316670.929,-8.873246028,-0.857261287,1.136935638
2316680.695,-8.986037698,-0.292075396,1.396230219
2316690.46,-9.370957952,-0.052685136,1.365743218
2316700.226,-8.871484109,0.466262551,1.313127554
2316709.991,-8.872020345,0.585190079,1.259503927
2316719.757,-8.834583052,0.783141588,1.157079389
2316729.523,-8.602847108,1.025075016,1.253750785
2316739.288,-8.410701465,0.824750917,1.237545843
2316749.054,-8.181384631,1.061846123,1.092306142
2316758.82,-8.373308522,1.062613725,1.130686268
2316768.585,-8.528424089,1.100074899,1.00374497
2316778.351,-8.607370845,1.096027541,0.801377032
2316788.116,-8.761228474,1.45600459,0.800229505
2316797.882,-8.685684601,1.613246183,0.662309165
2316807.648,-8.955301342,1.572474239,0.62371194
2316817.413,-9.11135633,1.72805657,0.402828499
2316827.179,-9.382182627,1.684865514,0.243275724
2316836.945,-9.611003543,1.728762144,0.438107201
2316846.71,-10.07460445,1.72463725,0.231862483
2316856.476,-10.11311422,1.764540795,0.227039768
2316866.241,-10.22891365,1.763711164,0.185558218
2316876.007,-10.5006834,1.478633202,-0.068339885
2316885.773,-10.73062517,1.440288122,0.014406116
2316895.538,-11.15262791,1.162436479,0.121823948
2316905.304,-10.65459747,0.79849736,-0.075132004
2316915.07,-10.84401759,0.364272522,0.213626108
2316924.835,-10.53674583,0.043431416,0.171570794
2316934.601,-10.2245028,-0.387467144,0.626642786
2316944.366,-10.37993689,-0.790643003,0.46784986
2316954.132,-10.4184023,-0.790650756,0.467462182
2316963.898,-10.18456576,-0.984516139,0.774193048
2316973.663,-10.22280539,-0.824072325,0.796383739
2316983.429,-10.1045425,-0.858315772,1.084211424
2316993.195,-10.18039683,-0.73617827,1.191086506
2317002.96,-10.06127918,-0.448712211,1.564389446
2317012.726,-10.02393462,-0.530946167,1.452691649
2317022.491,-10.02299117,-0.28905926,1.547036977
2317032.257,-9.831869616,0.06856846,1.428423003
2317042.023,-9.792908283,0.349568049,1.478402456
2317051.788,-10.25283618,0.312789188,1.639459422
2317061.554,-9.833518643,0.825270405,1.263520272
2317071.32,-10.17925985,0.786095694,1.304784722
2317081.085,-9.832353438,0.867600816,1.380040784
2317090.851,-10.06336768,1.067110791,1.355539532
2317100.616,-10.10161135,0.867546541,1.377327037
2317110.382,-10.22054352,1.140451412,1.022570616
2317120.148,-10.3362099,1.019887884,0.994394176
2317129.913,-10.22009599,1.101346483,1.067324169
2317139.679,-10.29613175,1.023121118,1.156055919
2317149.445,-10.33544788,1.061411923,1.070596171
2317159.21,-10.33535918,0.981589325,1.079466245
2317168.976,-10.49119242,0.93761516,0.880757988
2317178.741,-10.22157568,0.978387104,0.919355214
2317188.507,-10.14464485,0.978402611,0.92013057
2317198.273,-10.06592388,0.821998403,1.099920138
2317208.038,-10.10358292,0.82360339,1.180169493
2317217.804,-9.991186372,0.977627255,0.881362766
2317227.57,-9.95209602,0.778884883,0.944244144
2317237.335,-9.682390578,0.739834229,0.991711443
2317247.101,-9.605637149,0.899494933,0.974746652
2317256.866,-9.566635497,0.780575159,1.028757957
