Timestamp,Accelerometer X,Accelerometer Y,Accelerometer Z
mSecs,m/(sec^2),m/(sec^2),m/(sec^2)
2191366.241,-10.37043784,-0.611644918,1.417754104
2191376.007,-10.06302901,-0.692211858,1.389407085
2191385.773,-9.869492374,-0.68975398,1.512301024
2191395.538,-9.872181619,-0.81513247,1.243376521
2191405.304,-10.06289595,-0.811945756,1.402712196
2191415.07,-9.986501361,-0.693002721,1.349863925
2191424.835,-9.98645701,-0.732914021,1.354298962
2191434.601,-10.06455305,-0.775259938,1.237003094
2191444.366,-9.947229575,-0.691382227,1.430888636
2191454.132,-10.1007324,-0.650695572,1.465221403
2191463.898,-9.870972064,-0.812713359,1.36433207
2191473.663,-10.02456359,-0.692204105,1.389794763
2191483.429,-10.06191218,-0.969978212,1.501089375
2191493.195,-9.94758841,-0.732099897,1.395005156
2191502.96,-10.02169694,-0.726470812,1.676459414
2191512.726,-10.17873974,-0.772864088,1.356795608
2191522.491,-9.90880851,-0.651463174,1.426841277
2191532.257,-9.945975669,-0.728874416,1.556279221
2191542.023,-10.02330968,-0.729696293,1.515185349
2191551.788,-9.871238166,-0.573245563,1.337721849
2191561.554,-9.909211695,-0.652269545,1.386522761
2191571.32,-9.98721903,-0.774438061,1.278096966
2191581.085,-9.946915091,-0.610753258,1.462337078
2191590.851,-9.870790631,-0.612350492,1.382475402
2191600.616,-9.910421251,-0.654688656,1.265567212
2191610.382,-9.94602002,-0.688963116,1.551844184
2191620.148,-9.909256046,-0.612358246,1.382087724
2191629.913,-9.948886666,-0.654696409,1.265179534
2191639.679,-9.909078644,-0.772003443,1.399827871
2191649.445,-9.909389097,-0.492624348,1.368782613
2191659.21,-9.90880851,-0.651463174,1.426841277
2191668.976,-10.02429346,-0.571663837,1.416808169
2191678.741,-9.871238166,-0.573245563,1.337721849
2191688.507,-10.02523691,-0.813550743,1.322462841
2191698.273,-9.86922224,-0.569213711,1.53931443
2191708.038,-9.910421251,-0.654688656,1.265567212
2191717.804,-10.10189761,-0.693025982,1.348700891
2191727.57,-9.909973715,-0.693793585,1.310320765
2191737.335,-10.02760764,-0.498292201,1.085389965
2191747.101,-9.985876424,-0.891752847,1.412357625
2191756.866,-9.950366356,-0.777655788,1.117210579
2191766.632,-9.870927714,-0.852624658,1.368767106
2191776.398,-9.869806859,-0.770382948,1.480852582
2191786.163,-10.02420476,-0.651486435,1.425678243
2191795.929,-10.02483372,-0.812744373,1.362781357
2191805.695,-9.908316624,-0.730479403,1.476029867
2191815.46,-10.02528126,-0.773639444,1.318027804
2191825.226,-9.948261729,-0.853446535,1.327673234
2191834.991,-9.947229575,-0.691382227,1.430888636
2191844.757,-9.947096524,-0.811116125,1.444193746
2191854.523,-9.870568879,-0.811906988,1.404650586
2191864.288,-9.867923984,-0.646617199,1.669140053
2191874.054,-9.911497755,-0.776841665,1.157916773
2191883.82,-9.946915091,-0.610753258,1.462337078
2191893.585,-10.10261528,-0.774461321,1.276933932
2191903.351,-10.29252324,-0.769661867,1.516906639
2191913.116,-9.833268669,-0.854229645,1.288517752
2191922.882,-10.10261528,-0.774461321,1.276933932
2191932.648,-9.944766114,-0.726455305,1.67723477
2191942.413,-9.909211695,-0.652269545,1.386522761
2191952.179,-9.947140874,-0.771204826,1.439758709
2191961.945,-9.946423205,-0.689769487,1.511525668
2191971.71,-9.909393129,-0.852632411,1.368379428
2191981.476,-10.10301846,-0.775267692,1.236615416
2191991.241,-9.793412265,-0.651439914,1.428004311
2192001.007,-10.06289595,-0.811945756,1.402712196
2192010.773,-9.947140874,-0.771204826,1.439758709
2192020.538,-9.870613229,-0.771995689,1.400215549
2192030.304,-9.946201453,-0.889325983,1.533700852
2192040.07,-9.86998426,-0.610737751,1.463112434
2192049.835,-10.03011948,-0.783315888,0.834205609
2192059.601,-9.908538376,-0.530922906,1.453854683
2192069.366,-9.986186876,-0.612373753,1.381312368
2192079.132,-9.98569499,-0.691389981,1.430500958
2192088.898,-9.830176238,-0.728044785,1.597760772
2192098.663,-9.872540454,-0.855850139,1.207493041
2192108.429,-9.982872694,-0.685745389,1.712730572
2192118.195,-9.908360975,-0.690568103,1.47159483
2192127.96,-10.1007324,-0.650695572,1.465221403
2192137.726,-10.10100254,-0.77123584,1.438207997
2192147.491,-9.946378854,-0.729680786,1.515960705
2192157.257,-10.09907531,-0.68738139,1.630930505
2192167.023,-9.868774705,-0.60831864,1.584067983
2192176.788,-9.986501361,-0.693002721,1.349863925
2192186.554,-10.13915347,-0.690614625,1.469268762
2192196.32,-10.10135734,-0.451945446,1.402727703
2192206.085,-9.794085584,-0.772786552,1.360672389
2192215.851,-9.832458266,-0.492608841,1.369557969
2192225.616,-9.986993247,-0.613986493,1.300675335
2192235.382,-10.06114613,-0.568446109,1.577694556
2192245.148,-10.13910912,-0.730525924,1.473703798
2192254.913,-9.947048142,-0.491019361,1.449031968
2192264.679,-9.98408225,-0.6881645,1.591775023
2192274.445,-9.908852861,-0.611551875,1.42240624
2192284.21,-9.755394385,-0.612327231,1.383638436
2192293.976,-9.986678762,-0.533357524,1.332123778
2192303.741,-9.986634412,-0.573268824,1.336558815
2192313.507,-10.21792282,-0.854307181,1.284640971
2192323.273,-10.14211285,-0.936533383,1.173330852
2192333.038,-10.06338784,-0.732929528,1.353523606
2192342.804,-10.14148388,-0.775275445,1.236227738
2192352.57,-9.949559985,-0.776043048,1.197847612
2192362.335,-10.06688346,-0.859920759,1.00396207
2192372.101,-10.02559574,-0.854268413,1.286579362
2192381.866,-10.14179836,-0.855904414,1.204779295
2192391.632,-9.987085979,-0.894171958,1.291402076
2192401.398,-9.910961519,-0.895769192,1.2115404
2192411.163,-9.948842316,-0.694607709,1.26961457
2192420.929,-9.94991882,-0.816760717,1.161964132
2192430.695,-10.06374668,-0.773647197,1.317640126
2192440.46,-10.06302901,-0.692211858,1.389407085
2192450.226,-10.21801152,-0.774484582,1.275770898
2192459.991,-9.870923682,-0.492616594,1.369170291
2192469.757,-10.06199685,-0.53014755,1.492622487
2192479.523,-10.02501113,-0.653099176,1.34504121
2192489.288,-9.98641266,-0.77282532,1.358733999
2192499.054,-10.1007324,-0.650695572,1.465221403
2192508.82,-9.871012382,-0.412793996,1.360300218
2192518.585,-9.908223892,-0.450293937,1.485303125
2192528.351,-10.09978895,-0.408808665,1.559566731
2192538.116,-10.17806642,-0.651517449,1.424127531
2192547.882,-9.986856164,-0.373712327,1.314383631
2192557.648,-9.908405325,-0.650656804,1.467159793
2192567.413,-10.02442651,-0.451929939,1.403503059
2192577.179,-10.06356524,-0.573284331,1.335783459
2192586.945,-9.75584192,-0.573222302,1.338884883
2192596.71,-9.946915091,-0.610753258,1.462337078
2192606.476,-9.986186876,-0.612373753,1.381312368
2192616.241,-10.02523288,-0.453542679,1.322866026
2192626.007,-9.948705233,-0.454333543,1.283322866
2192635.773,-9.909880983,-0.41360812,1.319594024
2192645.538,-9.909614881,-0.653075915,1.346204244
2192655.304,-10.13897203,-0.490251758,1.487412094
2192665.07,-9.986408628,-0.412817256,1.359137184
2192674.835,-9.910868786,-0.615583727,1.220813659
2192684.601,-10.02491839,-0.372913711,1.354314469
2192694.366,-9.949019717,-0.534962512,1.251874423
2192704.132,-10.17967513,-0.294734867,1.263256651
2192713.898,-9.911090538,-0.416027231,1.198638475
2192723.663,-9.833442038,-0.334576384,1.27118079
2192733.429,-9.871907453,-0.334584138,1.270793112
2192743.195,-10.10261124,-0.414453258,1.277337117
2192752.96,-10.14125406,-0.254815814,1.259209292
2192762.726,-9.910776054,-0.335398262,1.230086917
2192772.491,-9.950672776,-0.13826863,1.086568507
2192782.257,-9.9873924,-0.2547848,1.260760004
2192792.023,-10.02724477,-0.097566467,1.12167663
2192801.788,-10.02885751,-0.100791949,0.960402565
2192811.554,-10.02868011,-0.260437146,0.978142712
2192821.32,-10.06768176,-0.141517372,0.924131407
2192831.085,-9.910776054,-0.335398262,1.230086917
2192840.851,-9.987662534,-0.375325068,1.233746598
2192850.616,-9.987706884,-0.335413769,1.229311561
2192860.382,-9.98967846,-0.37935692,1.032154017
2192870.148,-10.06562149,-0.177396819,1.130159026
2192879.913,-9.950003489,-0.376930055,1.153497244
2192889.679,-10.10520776,-0.259646283,1.017685872
2192899.445,-10.02706737,-0.257211664,1.139416777
2192909.21,-10.06732696,-0.460807766,0.959611702
2192918.976,-10.21800749,-0.414476518,1.276174083
2192928.741,-9.95009219,-0.297107457,1.14462717
2192938.507,-10.06463771,-0.335429276,1.228536205
2192948.273,-9.913239515,-0.300325184,0.983740783
2192958.038,-9.952196816,-0.22131671,0.934164515
2192967.804,-10.10440139,-0.258033542,1.098322905
2192977.57,-9.951926682,-0.100776442,0.961177921
2192987.335,-9.988513255,-0.337026509,1.148674529
2192997.101,-10.1458665,-0.104040691,0.797965466
2193006.866,-9.75910772,-0.179753902,1.012304901
2193016.632,-9.796589364,-0.337794112,1.110294403
2193026.398,-9.950628426,-0.178179929,1.091003543
2193036.163,-9.91283633,-0.299518814,1.024059299
2193045.929,-9.87320571,-0.25718065,1.140967489
2193055.695,-9.682580075,-0.180544765,0.972761741
2193065.46,-10.02760361,-0.138284137,1.085793151
2193075.226,-10.02585782,-0.254792553,1.260372326
2193084.991,-9.87329441,-0.177358052,1.132097416
2193094.757,-9.950942911,-0.258808898,1.059555101
2193104.523,-9.911042156,-0.095930466,1.203476697
2193114.288,-9.872935576,-0.136640382,1.167980895
2193124.054,-9.75906337,-0.219665201,1.016739938
2193133.82,-10.10529646,-0.179823684,1.008815799
2193143.585,-10.1037321,-0.496694967,1.165251642
2193153.351,-10.10453847,-0.498307708,1.084614609
2193163.116,-10.10328053,-0.175791832,1.21040838
2193172.882,-10.1427781,-0.337863894,1.1068053
2193182.648,-10.06410148,-0.454356803,1.282159832
2193192.413,-10.14273375,-0.377775193,1.111240337
2193202.179,-10.06522233,-0.536598513,1.170074357
2193211.945,-9.949959139,-0.416841354,1.15793228
2193221.71,-10.06660929,-0.379372427,1.031378661
2193231.476,-10.10476425,-0.658759275,1.06203624
2193241.241,-10.06656494,-0.419283726,1.035813697
2193251.007,-10.10503036,-0.41929148,1.035426019
2193260.773,-10.02711575,-0.577308429,1.134578555
2193270.538,-10.10516341,-0.299557582,1.022120909
2193280.304,-10.10619556,-0.46162189,0.918905507
2193290.07,-10.10507471,-0.37938018,1.030990983
2193299.835,-9.988739038,-0.497478077,1.12609616
2193309.601,-10.06701248,-0.380178797,0.991060144
2193319.366,-9.951301745,-0.299526568,1.023671621
2193329.132,-9.952511301,-0.301945679,0.902716072
2193338.898,-10.10458282,-0.458396409,1.080179572
2193348.663,-9.873741946,-0.138253123,1.087343863
2193358.429,-9.794932273,-0.37447993,1.276003505
2193368.195,-10.2204266,-0.41931474,1.034262985
2193377.96,-9.951571879,-0.420066836,0.996658215
2193387.726,-9.913062114,-0.459970381,1.00148093
2193397.491,-9.951930714,-0.460784505,0.960774736
2193407.257,-10.10552224,-0.340275251,0.98623743
2193417.023,-9.988561637,-0.657123274,1.143836307
2193426.788,-9.989363975,-0.298727951,1.063602459
2193436.554,-10.06781885,-0.381791538,0.910423112
2193446.32,-9.83742954,-0.382551387,0.872430664
2193456.085,-10.22154342,-0.141548386,0.922580695
2193465.851,-9.87481845,-0.260406132,0.979693424
2193475.616,-9.951886364,-0.500695805,0.965209773
2193485.382,-10.06508525,-0.296324347,1.183782652
2193495.148,-9.913328216,-0.220502586,0.974870709
2193504.913,-9.835591015,-0.218874338,1.056283098
2193514.679,-10.02863576,-0.300348445,0.982577749
2193524.445,-10.10462717,-0.418485109,1.075744536
2193534.21,-9.91359835,-0.341042854,0.947857303
2193543.976,-10.02895025,-0.380977414,0.951129306
2193553.741,-10.02993402,-0.222944957,0.852752126
2193563.507,-10.10632861,-0.341887992,0.905600397
2193573.273,-10.0304259,-0.143928729,0.803563537
2193583.038,-10.10552224,-0.340275251,0.98623743
2193592.804,-10.02971227,-0.422501454,0.87492731
2193602.57,-10.06831073,-0.30277531,0.861234522
2193612.335,-10.10507471,-0.37938018,1.030990983
2193622.101,-10.2592952,-0.420128864,0.993556791
2193631.866,-9.798738341,-0.222092066,0.895396711
2193641.632,-10.10507471,-0.37938018,1.030990983
2193651.398,-9.836578819,-0.420849945,0.957502733
2193661.163,-9.72100114,-0.220463818,0.9768091
2193670.929,-9.909610849,-0.293067851,1.346607429
2193680.695,-9.836353035,-0.260398378,0.980081102
2193690.46,-10.10422398,-0.417678739,1.116063052
2193700.226,-10.02657548,-0.336227893,1.188605367
2193709.991,-9.95170493,-0.300332938,0.983353105
2193719.757,-10.10431269,-0.33785614,1.107192978
2193729.523,-10.10431269,-0.33785614,1.107192978
2193739.288,-10.21809619,-0.33465392,1.267304009
2193749.054,-9.988021369,-0.416042738,1.197863119
2193758.82,-9.911582424,-0.337011002,1.149449885
2193768.585,-9.950317974,-0.457559024,1.122048801
2193778.351,-9.988243121,-0.216486241,1.175687935
2193788.116,-9.912521846,-0.218889845,1.055507742
2193797.882,-9.950942911,-0.258808898,1.059555101
2193807.648,-9.951168694,-0.419260465,1.036976732
2193817.413,-9.873161359,-0.297091949,1.145402526
2193827.179,-9.949600304,-0.376123685,1.19381576
2193836.945,-9.911582424,-0.337011002,1.149449885
2193846.71,-10.10440139,-0.258033542,1.098322905
2193856.476,-10.21755995,-0.453581447,1.320927636
2193866.241,-9.950539725,-0.258002528,1.099873617
2193876.007,-9.95170493,-0.300332938,0.983353105
2193885.773,-9.836889271,-0.14147085,0.926457476
2193895.538,-9.910328518,-0.374503191,1.27484047
2193905.304,-9.95085421,-0.338631497,1.068425174
2193915.07,-9.98967846,-0.37935692,1.032154017
2193924.835,-9.797351384,-0.379318152,1.034092407
2193934.601,-9.989900212,-0.179800423,1.009978833
2193944.366,-10.02769634,-0.418469602,1.076519892
2193954.132,-10.1038208,-0.416872369,1.156381568
2193963.898,-9.875403069,-0.461575368,0.921231576
2193973.663,-9.953091887,-0.143106852,0.844657409
2193983.429,-9.835502314,-0.298696937,1.065153172
2193993.195,-9.952152466,-0.261228009,0.938599552
2194002.96,-10.14273375,-0.377775193,1.111240337
2194012.726,-10.18281191,-0.381008428,0.949578594
2194022.491,-10.0681293,-0.102412443,0.879377854
2194032.257,-10.0289059,-0.420888713,0.955564343
2194042.023,-9.950632458,-0.538187993,1.090600358
2194051.788,-9.952019415,-0.380961907,0.951904662
2194061.554,-9.953095919,-0.503114916,0.844254224
2194071.32,-9.953450722,-0.183824521,0.808773929
2194081.085,-9.951527529,-0.459978135,1.001093252
2194090.851,-10.10547789,-0.380186551,0.990672466
2194100.616,-10.02814388,-0.379364673,1.031766339
2194110.382,-10.06705683,-0.340267498,0.986625108
2194120.148,-9.990529181,-0.341058361,0.947081947
2194129.913,-9.952870136,-0.342663348,0.866832593
2194139.679,-10.1814693,-0.498323215,1.083839253
2194149.445,-10.06692377,-0.460001396,0.999930218
2194159.21,-10.06773015,-0.461614136,0.919293185
2194168.976,-10.14287083,-0.618049359,1.097532042
2194178.741,-9.952781435,-0.422485947,0.875702666
2194188.507,-10.06692377,-0.460001396,0.999930218
2194198.273,-10.10637296,-0.301976693,0.90116536
2194208.038,-10.02980097,-0.342678855,0.866057237
2194217.804,-10.06866957,-0.343492979,0.825351042
2194227.57,-9.914449071,-0.302744295,0.862785234
2194237.335,-10.02944213,-0.301961186,0.901940716
2194247.101,-9.913239515,-0.300325184,0.983740783
2194256.866,-9.99048483,-0.38096966,0.951516984
2194266.632,-10.10646166,-0.222154094,0.892295287
2194276.398,-9.799097175,-0.262809735,0.859513231
2194286.163,-9.989988912,-0.099977825,1.001108759
2194295.929,-10.02859141,-0.340259744,0.987012786
2194305.695,-9.799859195,-0.304333775,0.783311236
2194315.46,-9.989319625,-0.33863925,1.068037496
2194325.226,-10.18200554,-0.379395687,1.030215627
2194334.991,-10.0692945,-0.144742853,0.762857342
2194344.757,-10.06799625,-0.222146341,0.892682965
2194354.523,-9.991287169,-0.022574337,0.871283137
2194364.288,-10.10561094,-0.260452653,0.977367356
2194374.054,-9.952600002,-0.22212308,0.893845999
2194383.82,-9.799992246,-0.184599877,0.770006125
2194393.585,-9.913509649,-0.420865452,0.956727377
2194403.351,-9.875265986,-0.221301203,0.934939871
2194413.116,-9.953180588,-0.063284253,0.835787335
2194422.882,-10.10605848,-0.221347724,0.932613803
2194432.648,-10.10520776,-0.259646283,1.017685872
2194442.413,-9.952152466,-0.261228009,0.938599552
2194452.179,-9.95166058,-0.340244237,0.987788142
2194461.945,-10.0300711,-0.463219123,0.839043831
2194471.71,-10.02863576,-0.300348445,0.982577749
2194481.476,-10.10583673,-0.42090422,0.954788987
2194491.241,-9.913731401,-0.221308956,0.934552193
2194501.007,-10.22055965,-0.299580843,1.020957875
2194510.773,-9.837159405,-0.262011119,0.89944407
2194520.538,-10.02988967,-0.262856257,0.857187163
2194530.304,-9.990529181,-0.341058361,0.947081947
2194540.07,-9.837651291,-0.18299489,0.85025548
2194549.835,-10.10596978,-0.301170322,0.941483876
2194559.601,-10.03096214,-0.025001202,0.74993991
2194569.366,-10.03011142,-0.06329976,0.835011979
2194579.132,-10.10650601,-0.182242795,0.88786025
2194588.898,-9.721626077,-0.021713692,0.914315399
2194598.663,-9.954567545,0.093941833,0.697091639
2194608.429,-10.10865499,-0.066540749,0.672962558
2194618.195,-9.913683019,0.098787808,0.939390415
2194627.96,-9.877503664,-0.025776558,0.711172106
2194637.726,-10.10713095,0.016507331,0.82536655
2194647.491,-9.838364929,0.095577834,0.778891706
2194657.257,-9.915251409,0.055651028,0.782551387
2194667.023,-9.952910454,0.057256015,0.862800741
2194676.788,-9.760942213,0.016577113,0.828855652
2194686.554,-10.06857683,-0.063307514,0.834624301
2194696.32,-9.874903119,0.179424531,0.971226536
2194706.085,-10.02979693,0.017329208,0.866460422
2194715.851,-10.0292607,-0.101598319,0.920084049
2194725.616,-9.913549968,-0.020946089,0.952695525
2194735.382,-9.951523497,-0.099970071,1.001496437
2194745.148,-10.02800679,-0.139090507,1.045474634
2194754.913,-9.913908803,-0.061663759,0.916812046
2194764.679,-9.912521846,-0.218889845,1.055507742
2194774.445,-9.949689005,-0.296301086,1.184945686
2194784.21,-10.06633916,-0.258832159,1.058392067
2194793.976,-10.1038208,-0.416872369,1.156381568
2194803.741,-9.989363975,-0.298727951,1.063602459
2194813.507,-10.02778504,-0.338647004,1.067649818
2194823.273,-10.06620611,-0.378566056,1.071697177
2194833.038,-10.21903964,-0.576540826,1.172958681
2194842.804,-10.02621665,-0.295510223,1.224488847
2194852.57,-10.1038208,-0.416872369,1.156381568
2194862.335,-10.10458282,-0.458396409,1.080179572
2194872.101,-10.10449815,-0.898227071,1.088646461
2194881.866,-10.06553682,-0.617227482,1.138625914
2194891.632,-9.987396432,-0.614792864,1.260356819
2194901.398,-9.948168997,-0.57326107,1.336946493
2194911.163,-9.757410311,-0.616359083,1.182045855
2194920.929,-10.0258175,-0.654711916,1.264404178
2194930.695,-9.949201151,-0.735325378,1.233731091
2194940.46,-10.25768649,-0.776911447,1.154427671
2194950.226,-9.795069356,-0.614754096,1.262295209
2194959.991,-9.835461996,-0.6986163,1.069185023
2194969.757,-10.21805587,-0.734573283,1.271335861
2194979.523,-10.06392408,-0.614002,1.299899979
2194989.288,-10.10342165,-0.776074062,1.196296899
2194999.054,-9.948080296,-0.653083669,1.345816566
2195008.82,-9.948439131,-0.693801338,1.309933087
2195018.585,-10.0646861,-0.65552604,1.223697983
2195028.351,-9.989009172,-0.618018345,1.099082754
2195038.116,-10.14206446,-0.616436619,1.178169074
2195047.882,-9.796504695,-0.777624774,1.118761291
2195057.648,-9.949648686,-0.696220449,1.188977538
2195067.413,-10.10024052,-0.7297118,1.514409993
2195077.179,-10.06728664,-0.860727129,0.963643553
2195086.945,-9.986545711,-0.653091422,1.345428888
2195096.71,-9.949963171,-0.776849418,1.157529095
2195106.476,-9.94835043,-0.773623937,1.31880316
2195116.241,-9.873254092,-0.577277415,1.136129267
2195126.007,-9.948886666,-0.654696409,1.265179534
2195135.773,-9.948527831,-0.61397874,1.301063013
2195145.538,-9.949963171,-0.776849418,1.157529095
2195155.304,-9.9491568,-0.775236677,1.238166128
2195165.07,-9.948572182,-0.57406744,1.296627976
2195174.835,-10.02501113,-0.653099176,1.34504121
2195184.601,-9.90880851,-0.651463174,1.426841277
2195194.366,-10.02541431,-0.653905546,1.304722694
2195204.132,-9.987263381,-0.734526761,1.273661929
2195213.898,-10.06307336,-0.652300559,1.384972048
2195223.663,-9.909122995,-0.732092143,1.395392834
2195233.429,-10.10140572,-0.77204221,1.397889481
2195243.195,-9.987577865,-0.81515573,1.242213487
2195252.96,-9.986053825,-0.73210765,1.394617478
2195262.726,-9.907598955,-0.649044063,1.547796826
2195272.491,-10.06343219,-0.693018229,1.349088569
2195282.257,-10.10221209,-0.773654951,1.317252448
2195292.023,-9.987622216,-0.775244431,1.23777845
2195301.788,-9.986142526,-0.652285052,1.385747404
2195311.554,-9.831788979,-0.731270266,1.436486707
2195321.32,-10.02496678,-0.693010475,1.349476247
2195331.085,-10.10382483,-0.776880432,1.155978383
2195340.851,-9.870790631,-0.612350492,1.382475402
2195350.616,-9.909167345,-0.692180844,1.390957797
2195360.382,-9.909256046,-0.612358246,1.382087724
2195370.148,-9.832861452,-0.493415211,1.329239453
2195379.913,-9.87070193,-0.69217309,1.391345475
2195389.679,-9.985739341,-0.651478682,1.426065921
2195399.445,-9.871818753,-0.414406736,1.279663185
2195409.21,-9.754858149,-0.731254759,1.437262063
2195418.976,-9.987577865,-0.81515573,1.242213487
2195428.741,-9.793186481,-0.490988346,1.45058268
2195438.507,-9.984977321,-0.609954642,1.502267917
2195448.273,-9.870028611,-0.570826452,1.458677398
2195458.038,-9.831966381,-0.571625069,1.418746559
2195467.804,-9.947048142,-0.491019361,1.449031968
2195477.57,-9.793363882,-0.331343149,1.432842533
2195487.335,-9.983231529,-0.726463058,1.676847092
2195497.101,-10.06119048,-0.52853481,1.573259519
2195506.866,-9.946197421,-0.529317919,1.534104037
2195516.632,-9.943330775,-0.563584626,1.820768688
2195526.398,-9.830220589,-0.688133485,1.593325735
2195536.163,-10.0229952,-0.649067324,1.546633792
2195545.929,-10.02322098,-0.809518892,1.524055422
2195555.695,-9.948753615,-0.774430307,1.278484644
2195565.46,-10.0227291,-0.88853512,1.573244012
2195575.226,-10.1382584,-0.768824483,1.558775868
2195584.991,-9.833760555,-0.775213417,1.239329162
2195594.757,-9.983501663,-0.847003326,1.649833686
2195604.523,-9.82959162,-0.526875548,1.65622262
2195614.288,-9.908272274,-0.770390702,1.480464904
2195624.054,-10.0228178,-0.808712521,1.564373939
2195633.82,-9.868105417,-0.846980066,1.65099672
2195643.585,-9.751677018,-0.684892497,1.755375156
2195653.351,-9.754321912,-0.850182286,1.490885689
2195663.116,-9.942750188,-0.722423453,1.878827351
2195672.882,-9.945709567,-0.968342211,1.582889442
2195682.648,-9.867387748,-0.765544726,1.722763679
2195692.413,-9.983231529,-0.726463058,1.676847092
2195702.179,-10.02196708,-0.84701108,1.649446008
2195711.945,-9.982243725,-0.524487451,1.775627457
2195721.71,-9.867569181,-0.965907593,1.704620347
2195731.476,-10.36734945,-0.845468121,1.726593938
2195741.241,-10.05827948,-0.602712816,1.864359207
2195751.007,-9.942080901,-0.961084878,1.945756088
2195760.773,-10.09670458,-1.002639932,1.868003381
2195770.538,-9.94275422,-1.082431517,1.878424166
2195780.304,-9.865597606,-0.921964442,1.901777891
2195790.07,-9.903748537,-0.841343227,1.932838656
2195799.835,-10.09473301,-0.958696781,2.065160925
2195809.601,-10.13404914,-0.920405976,1.979701178
2195819.366,-10.09545068,-1.040132121,1.993393966
2195829.132,-10.0573441,-1.080842037,1.957898165
2195838.898,-9.904510556,-0.882867267,1.85663666
2195848.663,-10.02080187,-0.80468067,1.76596652
2195858.429,-9.942395385,-1.041713847,1.914307646
2195868.195,-9.828430447,-0.844553201,1.772339947
2195877.96,-9.790146465,-1.044908314,1.754584293
2195887.726,-9.828208695,-1.044109697,1.794515131
2195897.491,-9.790279516,-0.925174416,1.741279182
2195907.257,-9.751592349,-1.124723159,1.763842044
2195917.023,-9.906840967,-0.967528087,1.623595636
2195926.788,-9.865734689,-1.162238608,1.888069596
2195936.554,-10.09791414,-1.005059043,1.747047832
2195946.32,-9.866359626,-0.963488482,1.825575896
2195956.085,-10.022463,-1.128002915,1.599854233
2195965.851,-9.790997185,-1.006609756,1.669512223
2195975.616,-10.0194633,-1.28200352,1.899823994
2195985.382,-9.98081645,-1.0816329,1.918355005
2195995.148,-9.789295744,-1.083206873,1.839656362
2196004.913,-9.865823389,-1.08241601,1.879199522
2196014.679,-10.05837625,-1.242906345,1.854682763
2196024.445,-9.712723748,-1.123909035,1.804548239
2196034.21,-9.904603289,-1.163052732,1.847363402
2196043.976,-9.828253045,-1.004198398,1.790080094
2196053.741,-9.597460554,-1.004151877,1.792406163
2196063.507,-9.9808608,-1.041721601,1.913919968
2196073.273,-9.71370752,-0.965876579,1.706171059
2196083.038,-9.865287153,-1.201343537,1.932823149
2196092.804,-9.864210649,-1.079190528,2.040473587
2196102.57,-9.788892559,-1.082400502,1.879974878
2196112.335,-9.903885619,-1.081617393,1.919130361
2196122.101,-9.90554271,-1.044931575,1.753421259
2196131.866,-9.904510556,-0.882867267,1.85663666
2196141.632,-9.866762811,-0.964294852,1.785257379
2196151.398,-9.944677413,-0.806277903,1.686104844
2196161.163,-9.903885619,-1.081617393,1.919130361
2196170.929,-10.17444178,-1.00426818,1.786590992
2196180.695,-9.828926364,-1.125545037,1.722748172
2196190.46,-9.712856799,-1.004175137,1.791243128
2196200.226,-9.98234049,-1.16468098,1.765951013
2196209.991,-9.905587061,-1.005020276,1.748986222
2196219.757,-9.866182224,-1.123133679,1.843316043
2196229.523,-9.866000791,-0.922770812,1.861459375
2196239.288,-9.905587061,-1.005020276,1.748986222
2196249.054,-9.790908485,-1.086432354,1.678382297
2196258.82,-9.829462601,-1.006617509,1.669124545
2196268.585,-9.827313624,-1.122319555,1.884022237
2196278.351,-9.942439735,-1.001802548,1.909872609
2196288.116,-9.788578074,-1.001771534,1.911423321
2196297.882,-9.904288805,-1.082423763,1.878811844
2196307.648,-9.866270925,-1.043311081,1.834445969
2196317.413,-9.983816148,-0.927632295,1.618385243
2196327.179,-10.05663046,-1.359414761,2.029261939
2196336.945,-9.981848604,-1.243697208,1.815139603
2196346.71,-10.01941492,-0.961906756,1.904662216
2196356.476,-9.827313624,-1.122319555,1.884022237
2196366.241,-10.01977375,-1.002624425,1.868778737
2196376.007,-9.943963775,-1.084850628,1.757468617
2196385.773,-9.711917378,-1.122296295,1.885185271
2196395.538,-10.09742225,-1.084075272,1.796236422
2196405.304,-9.982832376,-1.085664752,1.716762423
2196415.07,-9.790908485,-1.086432354,1.678382297
2196424.835,-10.01878998,-1.160656882,1.967155916
2196434.601,-9.943604941,-1.044132958,1.793352097
2196444.366,-9.944681445,-1.166285967,1.685701658
2196454.132,-10.02170098,-1.086478875,1.676056229
2196463.898,-9.90621603,-1.166278213,1.686089337
2196473.663,-10.05895684,-1.084067518,1.7966241
2196483.429,-9.981711521,-1.003423042,1.828847898
2196493.195,-9.867524831,-1.005818892,1.709055384
2196502.96,-9.943290456,-0.963503989,1.82480054
2196512.726,-9.864791235,-0.920351702,1.982414924
2196522.491,-9.868645686,-1.088060602,1.596969908
2196532.257,-9.943157405,-1.083237887,1.83810565
2196542.023,-9.791041536,-0.966698456,1.665077187
2196551.788,-10.01968505,-1.082447024,1.87764881
2196561.554,-9.943471889,-1.163866856,1.806657207
2196571.32,-9.869359323,-0.809487877,1.525606135
2196581.085,-9.983279911,-1.046559823,1.67200887
2196590.851,-9.750560195,-0.962658851,1.867057446
2196600.616,-9.944858846,-1.00664077,1.667961511
2196610.382,-10.05855365,-1.083261148,1.836942616
2196620.148,-9.790727051,-0.886069487,1.696525629
2196629.913,-9.790057764,-1.124730913,1.763454366
2196639.679,-9.790864134,-1.126343653,1.682817334
2196649.445,-9.982114706,-1.004229412,1.788529382
2196659.21,-10.09903499,-1.087300753,1.634962356
2196668.976,-9.905272576,-0.924391307,1.780434665
2196678.741,-9.869048871,-1.088866972,1.556651392
2196688.507,-9.907332853,-0.888511859,1.574407046
2196698.273,-9.984174982,-0.968349965,1.582501764
2196708.038,-9.790997185,-1.006609756,1.669512223
2196717.804,-9.943875075,-1.164673226,1.766338691
2196727.57,-9.983638746,-1.087277492,1.636125391
2196737.335,-10.10001876,-0.929268296,1.536585177
2196747.101,-9.906796616,-1.007439387,1.628030673
2196756.866,-10.17618757,-0.887759764,1.612011816
2196766.632,-9.868286851,-1.047342932,1.632853388
2196776.398,-10.02219286,-1.007462647,1.626867639
2196786.163,-10.0226404,-0.968357718,1.582114086
2196795.929,-9.983771797,-0.967543594,1.62282028
2196805.695,-9.830539105,-1.128770518,1.561474107
2196815.46,-10.09885356,-0.886937886,1.653105689
2196825.226,-9.830087538,-0.807867383,1.606630845
2196834.991,-9.831252743,-0.850197793,1.490110333
2196844.757,-10.13821404,-0.808735782,1.563210905
2196854.523,-10.06092438,-0.768002605,1.59986974
2196864.288,-10.02326533,-0.769607592,1.519620386
2196874.054,-10.02366852,-0.770413963,1.479301869
2196883.82,-9.867520799,-0.645810829,1.709458569
2196893.585,-9.908272274,-0.770390702,1.480464904
2196903.351,-9.94682639,-0.690575857,1.471207152
2196913.116,-9.9841266,-0.6482532,1.587339986
2196922.882,-9.871016414,-0.772802059,1.359897033
2196932.648,-9.82954727,-0.566786847,1.660657657
2196942.413,-9.754096129,-0.689730719,1.513464058
2196952.179,-9.830756825,-0.569205958,1.539702108
2196961.945,-10.02196305,-0.487003016,1.649849193
2196971.71,-10.0620412,-0.490236251,1.48818745
2196981.476,-9.907107069,-0.728060292,1.596985416
2196991.241,-9.754765416,-0.451069294,1.446535321
2197001.007,-9.868863406,-0.528496042,1.57519791
2197010.773,-9.714913044,-0.608287626,1.585618695
2197020.538,-9.79305343,-0.610722244,1.46388779
2197030.304,-9.984304002,-0.488608003,1.569599839
2197040.07,-9.714284075,-0.447029688,1.648515581
2197049.835,-9.945391051,-0.527705179,1.61474107
2197059.601,-9.90804649,-0.609939135,1.503043273
2197069.366,-9.831696247,-0.451084801,1.445759965
2197079.132,-9.947495677,-0.451914432,1.404278415
2197088.898,-9.868907756,-0.488584743,1.570762873
2197098.663,-9.987081947,-0.534163895,1.291805262
2197108.429,-9.868952106,-0.448673443,1.566327836
2197118.195,-10.02478534,-0.492647608,1.367619579
2197127.96,-9.946419173,-0.329761423,1.511928853
2197137.726,-9.984485435,-0.68897087,1.551456506
2197147.491,-9.947451327,-0.491825731,1.408713452
2197157.257,-9.984304002,-0.488608003,1.569599839
2197167.023,-10.06454901,-0.415251874,1.237406279
2197176.788,-9.984259651,-0.528519302,1.574034876
2197186.554,-10.02187435,-0.566825615,1.658719267
2197196.32,-9.984574136,-0.609148271,1.542586433
2197206.085,-10.02335404,-0.689784994,1.510750312
2197215.851,-9.946556256,-0.570035589,1.498220558
2197225.616,-10.25472711,-0.530992688,1.45036558
2197235.382,-10.10001473,-0.569260233,1.536988362
2197245.148,-10.02514418,-0.533365278,1.3317361
2197254.913,-10.06190815,-0.609970149,1.50149256
2197264.679,-10.14143953,-0.815186745,1.240662774
2197274.445,-9.946959441,-0.570841959,1.457902042
2197284.21,-9.871282516,-0.533334264,1.333286812
2197293.976,-9.910554302,-0.534954758,1.252262101
2197303.741,-9.908715778,-0.371277709,1.436114536
2197313.507,-10.02344274,-0.609962395,1.501880238
2197323.273,-10.06150497,-0.609163778,1.541811077
2197333.038,-10.0995672,-0.608365162,1.581741915
2197342.804,-9.947229575,-0.691382227,1.430888636
2197352.57,-10.02312825,-0.529333426,1.533328681
2197362.335,-10.06096873,-0.728091306,1.595434703
2197372.101,-10.02433781,-0.531752537,1.412373132
2197381.866,-10.02397897,-0.491034868,1.448256612
2197391.632,-9.94602002,-0.688963116,1.551844184
2197401.398,-9.908852861,-0.611551875,1.42240624
2197411.163,-9.986231227,-0.572462453,1.376877331
2197420.929,-10.10055097,-0.450332705,1.483364735
2197430.695,-10.06240004,-0.530953921,1.452303971
2197440.46,-9.718182875,-0.574827289,1.258635528
2197450.226,-10.09916401,-0.607558791,1.622060431
2197459.991,-9.871101083,-0.332971397,1.351430144
2197469.757,-9.828559466,-0.36481124,1.759438022
2197479.523,-9.834159708,-0.416011723,1.199413831
2197489.288,-9.871326867,-0.493422964,1.328851775
2197499.054,-10.13937522,-0.491058128,1.447093578
2197508.82,-9.947451327,-0.491825731,1.408713452
2197518.585,-9.909207664,-0.292261481,1.386925946
2197528.351,-9.908356943,-0.33056004,1.471998015
2197538.116,-9.948076264,-0.293075605,1.346219751
2197547.882,-9.870609197,-0.411987625,1.400618734
2197557.648,-9.794887922,-0.414391229,1.280438541
2197567.413,-9.948882634,-0.294688346,1.265582719
2197577.179,-10.06405713,-0.494268103,1.286594869
2197586.945,-9.872580773,-0.455930776,1.20346119
2197596.71,-10.02563606,-0.45434905,1.28254751
2197606.476,-9.948749583,-0.414422243,1.278887829
2197616.241,-10.17882441,-0.333033426,1.34832872
2197626.007,-10.10041792,-0.570066603,1.496669846
2197635.773,-9.909074613,-0.411995379,1.400231056
2197645.538,-9.946153071,-0.569229219,1.538539074
2197655.304,-10.02563606,-0.45434905,1.28254751
2197665.07,-10.02532158,-0.373720081,1.313995953
2197674.835,-10.0996559,-0.528542563,1.572871841
2197684.601,-9.908985912,-0.491817977,1.40910113
2197694.366,-10.06351686,-0.253187566,1.340621681
2197704.132,-10.13856885,-0.489445388,1.52773061
2197713.898,-10.10225241,-0.373735588,1.313220597
2197723.663,-9.947628728,-0.332180534,1.390973304
2197733.429,-10.10176052,-0.452751816,1.362409186
2197743.195,-10.02523288,-0.453542679,1.322866026
2197752.96,-9.987126298,-0.494252596,1.287370225
2197762.726,-9.984392702,-0.408785405,1.560729765
2197772.491,-9.946866709,-0.290656494,1.4671753
2197782.257,-9.946822358,-0.330567793,1.471610337
2197792.023,-9.908941561,-0.531729277,1.413536166
2197801.788,-9.986452979,-0.372905957,1.354702147
2197811.554,-10.10180487,-0.412840517,1.35797415
2197821.32,-9.987077916,-0.174155831,1.292208447
2197831.085,-9.869625425,-0.570020082,1.498995914
2197840.851,-9.948076264,-0.293075605,1.346219751
2197850.616,-10.10126864,-0.531768044,1.411597776
2197860.382,-10.13865755,-0.409622789,1.518860537
2197870.148,-9.792783296,-0.490181976,1.490901196
2197879.913,-10.02455956,-0.332196041,1.390197948
2197889.679,-10.06280322,-0.531760291,1.411985454
2197899.445,-10.0648635,-0.495880843,1.205957836
2197909.21,-10.10176052,-0.452751816,1.362409186
2197918.976,-9.948749583,-0.414422243,1.278887829
2197928.741,-9.909925333,-0.37369682,1.315158987
2197938.507,-9.946286122,-0.449495321,1.525233964
2197948.273,-9.871012382,-0.412793996,1.360300218
2197958.038,-10.06306932,-0.292292495,1.385375234
2197967.804,-10.10032922,-0.649889202,1.505539919
2197977.57,-9.909118963,-0.37208408,1.395796019
2197987.335,-10.02576911,-0.334615152,1.2692424
2197997.101,-9.947810162,-0.532543401,1.372829972
2198006.866,-10.06172672,-0.409607282,1.519635893
2198016.632,-9.949197119,-0.375317314,1.234134276
2198026.398,-9.98819877,-0.256397541,1.180122971
2198036.163,-10.21728982,-0.333041179,1.347941042
2198045.929,-9.945882937,-0.44868895,1.56555248
2198055.695,-10.02568041,-0.414437751,1.278112473
2198065.46,-9.909389097,-0.492624348,1.368782613
2198075.226,-9.986049793,-0.372099587,1.395020663
2198084.991,-9.986811813,-0.413623627,1.318818667
2198094.757,-9.871459918,-0.373689067,1.315546665
2198104.523,-9.947225543,-0.331374164,1.431291821
2198114.288,-9.795782993,-0.336181371,1.190931435
2198124.054,-10.02482969,-0.452736309,1.363184543
2198133.82,-9.795291107,-0.415197599,1.240120025
2198143.585,-10.0260836,-0.415244121,1.237793957
2198153.351,-9.986723113,-0.493446225,1.327688741
2198163.116,-10.10135734,-0.451945446,1.402727703
2198172.882,-10.02321695,-0.449510828,1.524458608
2198182.648,-9.793678367,-0.411972118,1.40139409
2198192.413,-9.987751235,-0.29550247,1.224876525
2198202.179,-9.987706884,-0.335413769,1.229311561
2198211.945,-10.02648678,-0.416050491,1.197475441
2198221.71,-10.17954611,-0.774476828,1.276158576
2198231.476,-10.02612795,-0.375332822,1.23335892
2198241.241,-10.02469261,-0.212462143,1.376892838
2198251.007,-9.985557907,-0.451115815,1.444209253
2198260.773,-10.02657548,-0.336227893,1.188605367
2198270.538,-9.909703581,-0.573253317,1.337334171
2198280.304,-10.17775193,-0.570888481,1.455575973
2198290.07,-9.795335458,-0.3752863,1.235684988
2198299.835,-10.10126864,-0.531768044,1.411597776
2198309.601,-9.988557605,-0.29711521,1.144239492
2198319.366,-9.832010731,-0.53171377,1.414311523
2198329.132,-10.10176052,-0.452751816,1.362409186
2198338.898,-9.987662534,-0.375325068,1.233746598
2198348.663,-9.909477798,-0.412801749,1.35991254
2198358.429,-9.949600304,-0.376123685,1.19381576
2198368.195,-10.02491839,-0.372913711,1.354314469
2198377.96,-9.872310639,-0.335390508,1.230474595
2198387.726,-9.948346398,-0.413615873,1.319206346
2198397.491,-10.06490785,-0.455969544,1.201522799
2198407.257,-9.986856164,-0.373712327,1.314383631
2198417.023,-9.755571786,-0.452682034,1.365898289
2198426.788,-9.948705233,-0.454333543,1.283322866
2198436.554,-9.98658603,-0.253172059,1.341397037
2198446.32,-9.909433447,-0.452713048,1.364347577
2198456.085,-10.02433781,-0.531752537,1.412373132
2198465.851,-10.14058477,-0.493477239,1.326138029
2198475.616,-10.02532158,-0.373720081,1.313995953
2198485.382,-10.02411202,-0.37130097,1.434951501
2198495.148,-10.02451521,-0.37210734,1.394632985
2198504.913,-10.17981221,-0.535009033,1.249548355
2198514.679,-9.946600606,-0.53012429,1.493785521
2198524.445,-10.10203066,-0.573292084,1.335395781
2198534.21,-10.02438216,-0.491841238,1.407938096
2198543.976,-9.910643003,-0.455132159,1.243392028
2198553.741,-9.910372869,-0.334591891,1.270405434
2198563.507,-9.947451327,-0.491825731,1.408713452
2198573.273,-9.794976623,-0.334568631,1.271568468
2198583.038,-9.947898863,-0.452720802,1.363959899
2198592.804,-9.985783691,-0.611567382,1.421630884
2198602.57,-9.871818753,-0.414406736,1.279663185
2198612.335,-10.02572476,-0.374526451,1.273677436
2198622.101,-9.948346398,-0.413615873,1.319206346
2198631.866,-9.910776054,-0.335398262,1.230086917
2198641.632,-10.10077675,-0.610784273,1.460786366
2198651.398,-9.870564847,-0.451898925,1.405053771
2198661.163,-10.06280322,-0.531760291,1.411985454
2198670.929,-9.947898863,-0.452720802,1.363959899
2198680.695,-9.754632365,-0.570803191,1.459840432
2198690.46,-10.02572476,-0.374526451,1.273677436
2198700.226,-9.833220286,-0.534132881,1.293355974
2198709.991,-9.985424856,-0.570849713,1.457514363
2198719.757,-10.02406767,-0.411212269,1.439386538
2198729.523,-10.10238546,-0.25400169,1.299915486
2198739.288,-9.910239818,-0.454325789,1.283710544
2198749.054,-10.02424507,-0.251567072,1.421646391
2198758.82,-10.06325076,-0.492655362,1.367231901
2198768.585,-10.33219821,-0.772088732,1.395563412
2198778.351,-10.02465229,-0.612381506,1.38092469
2198788.116,-10.06047281,-0.44709947,1.645026478
2198797.882,-9.869355291,-0.449479814,1.52600932
2198807.648,-9.946959441,-0.570841959,1.457902042
2198817.413,-10.10032922,-0.649889202,1.505539919
2198827.179,-10.02155986,-0.486196646,1.69016771
2198836.945,-10.02357579,-0.490228497,1.488575128
2198846.71,-10.10261528,-0.774461321,1.276933932
2198856.476,-9.946822358,-0.330567793,1.471610337
2198866.241,-10.10153877,-0.652308313,1.38458437
2198876.007,-10.06311771,-0.61238926,1.380537012
2198885.773,-9.947003791,-0.53093066,1.453467005
2198895.538,-9.985066022,-0.530132043,1.493397843
2198905.304,-10.06096873,-0.728091306,1.595434703
2198915.07,-9.792738945,-0.530093275,1.495336233
2198924.835,-9.98488862,-0.68977724,1.51113799
2198934.601,-10.10109124,-0.691413242,1.429337923
2198944.366,-10.0606099,-0.687373636,1.631318183
2198954.132,-10.06334349,-0.772840827,1.357958643
2198963.898,-9.869492374,-0.68975398,1.512301024
2198973.663,-10.13754073,-0.687389143,1.630542827
2198983.429,-9.908135191,-0.530116536,1.494173199
2198993.195,-9.94754406,-0.772011196,1.399440193
2199002.96,-10.02259202,-0.648260954,1.586952308
2199012.726,-9.827890179,-0.603472665,1.826366759
2199022.491,-9.870476146,-0.531721523,1.413923845
2199032.257,-9.946644957,-0.49021299,1.489350484
2199042.023,-10.0230839,-0.569244726,1.537763718
2199051.788,-10.06065425,-0.647462337,1.626883146
2199061.554,-10.02201143,-0.807099781,1.645010971
2199071.32,-10.06173075,-0.769615346,1.519232708
2199081.085,-10.02443054,-0.811938003,1.403099874
2199090.851,-9.946153071,-0.569229219,1.538539074
2199100.616,-9.946290154,-0.809503384,1.524830779
2199110.382,-9.985517589,-0.851035178,1.448241105
2199120.148,-10.06088003,-0.807913904,1.604304777
2199129.913,-9.944810464,-0.686544005,1.672799733
2199139.679,-9.906748234,-0.687342622,1.632868895
2199149.445,-9.944899165,-0.606721407,1.66392966
2199159.21,-9.983275879,-0.686551759,1.672412055
2199168.976,-9.829325518,-0.766343343,1.682832841
2199178.741,-10.06101308,-0.688180007,1.590999667
2199188.507,-9.905405628,-0.804657409,1.767129554
2199198.273,-9.830712475,-0.609117257,1.544137145
2199208.038,-9.90724012,-0.608326394,1.583680305
2199217.804,-9.792472843,-0.769561071,1.521946454
2199227.57,-9.868282819,-0.687334869,1.633256573
2199237.335,-10.29171687,-0.768049127,1.597543672
2199247.101,-9.79148504,-0.567585464,1.620726819
2199256.866,-9.945169299,-0.727261675,1.636916254
2199266.632,-9.90571608,-0.525278314,1.736084297
2199276.398,-9.86922224,-0.569213711,1.53931443
2199286.163,-9.984799919,-0.769599839,1.520008064
2199295.929,-9.944407279,-0.685737635,1.71311825
2199305.695,-9.868149768,-0.807068766,1.646561683
2199315.46,-9.906703884,-0.727253921,1.637303932
2199325.226,-9.868464252,-0.887697735,1.615113241
2199334.991,-9.908945593,-0.89173734,1.413132981
2199344.757,-10.09934544,-0.807921658,1.603917099
2199354.523,-10.09836167,-0.965954114,1.702294279
2199364.288,-10.06083568,-0.847825204,1.608739814
2199374.054,-10.09692633,-0.803083436,1.845828197
2199383.82,-9.712764067,-0.723989672,1.800516387
2199393.585,-10.13808099,-0.92846968,1.576516015
2199403.351,-10.02286215,-0.768801222,1.559938902
2199413.116,-10.09876486,-0.966760485,1.661975762
2199422.882,-9.791351988,-0.687319361,1.634031929
2199432.648,-9.982380808,-0.764761617,1.761919161
2199442.413,-9.944721763,-0.766366604,1.681669807
2199452.179,-10.0974666,-1.044163972,1.791801385
2199461.945,-9.868149768,-0.807068766,1.646561683
2199471.71,-10.01878595,-0.800648818,1.967559102
2199481.476,-9.905091143,-0.72402844,1.798577997
2199491.241,-9.636728307,-0.645764307,1.711784637
2199501.007,-9.906123297,-0.886092748,1.695362595
2199510.773,-9.828249013,-0.644190334,1.790483279
2199520.538,-9.905449978,-0.76474611,1.762694517
2199530.304,-10.09710777,-1.003446303,1.827684864
2199540.07,-9.904284773,-0.722415699,1.87921503
2199549.835,-9.981844572,-0.883689144,1.815542788
2199559.601,-10.02205578,-0.767188481,1.640575934
2199569.366,-10.05926729,-0.804688423,1.765578842
2199579.132,-9.866807161,-0.924383553,1.780822343
2199588.898,-9.675193723,-0.645772061,1.711396959
2199598.663,-9.866762811,-0.964294852,1.785257379
2199608.429,-9.905449978,-0.76474611,1.762694517
2199618.195,-9.905808813,-0.805463779,1.726811038
2199627.96,-9.982026005,-1.084052011,1.797399456
2199637.726,-9.944903197,-0.966729471,1.663526475
2199647.491,-9.90473634,-1.043318834,1.834058291
2199657.257,-9.982473541,-1.044947082,1.752645903
2199667.023,-9.907018368,-0.80788289,1.605855489
2199676.788,-9.713304335,-0.965070208,1.746489575
2199686.554,-9.866089492,-0.842948214,1.852589302
2199696.32,-9.905587061,-1.005020276,1.748986222
2199706.085,-9.865194421,-0.921158072,1.942096408
2199715.851,-9.674971971,-0.845328557,1.733572143
2199725.616,-9.982292108,-0.844584215,1.770789235
2199735.382,-9.713393036,-0.88524761,1.737619502
2199745.148,-9.944411311,-1.045745699,1.712715064
2199754.913,-10.02008824,-1.083253394,1.837330294
2199764.679,-10.02026564,-0.923608197,1.819590147
2199774.445,-9.980635017,-0.881270033,1.936498337
2199784.21,-9.86667411,-1.044117451,1.794127453
2199793.976,-10.02098331,-1.005043536,1.747823188
2199803.741,-9.903704186,-0.881254526,1.937273693
2199813.507,-9.866226575,-1.08322238,1.838881006
2199823.273,-9.86595644,-0.962682112,1.865894412
2199833.038,-9.826773356,-0.881239019,1.938049049
2199842.804,-9.981352686,-0.962705372,1.864731378
2199852.57,-9.866448326,-0.883665884,1.816705822
2199862.335,-10.02116071,-0.845398339,1.730083041
2199872.101,-9.943334807,-0.92359269,1.820365503
2199881.866,-9.789561846,-0.843739077,1.813046141
2199891.632,-10.0186529,-0.920382716,1.980864212
2199901.398,-9.867254697,-0.885278624,1.73606879
2199911.163,-9.864702535,-1.0001743,1.991284998
2199920.929,-9.90469199,-1.083230133,1.838493328
2199930.695,-9.903796919,-1.161439991,1.928000434
2199940.46,-9.943246106,-1.003415288,1.829235576
2199950.226,-9.75091903,-1.003376521,1.831173967
2199959.991,-10.02151954,-0.886116009,1.694199561
2199969.757,-9.866359626,-0.963488482,1.825575896
2199979.523,-9.905361277,-0.844568708,1.771564591
2199989.288,-9.905724144,-1.245294441,1.735277926
2199999.054,-9.825878285,-0.959448877,2.027556155
2200008.82,-9.63682104,-0.925949772,1.702511378
2200018.585,-9.865375854,-1.121520938,1.923953075
2200028.351,-9.788892559,-1.082400502,1.879974878
2200038.116,-9.942351035,-1.081625146,1.918742683
2200047.882,-9.904333155,-1.042512464,1.874376808
2200057.648,-9.866496709,-1.203762648,1.8118676
2200067.413,-10.17233716,-1.080058927,1.997053647
2200077.179,-9.867032945,-1.084835121,1.758243974
2200086.945,-9.905945896,-1.045737945,1.713102742
2200096.71,-9.943919425,-1.124761927,1.761903654
2200106.476,-9.867524831,-1.005818892,1.709055384
2200116.241,-9.86667411,-1.044117451,1.794127453
2200126.007,-9.982114706,-1.004229412,1.788529382
2200135.773,-10.02183403,-0.966744978,1.662751118
2200145.538,-9.829462601,-1.006617509,1.669124545
2200155.304,-9.905006474,-1.163859102,1.807044885
2200165.07,-9.944947547,-0.926818171,1.659091438
2200174.835,-10.01802796,-1.119132842,2.043357912
2200184.601,-9.867524831,-1.005818892,1.709055384
2200194.366,-9.828478829,-1.164649965,1.767501725
2200204.132,-9.943471889,-1.163866856,1.806657207
2200213.898,-10.02178968,-1.006656277,1.667186155
2200223.663,-10.05922697,-1.204607786,1.769610694
2200233.429,-9.904514588,-1.24287533,1.856233475
2200243.195,-9.789118343,-1.24285207,1.857396509
2200252.96,-9.789295744,-1.083206873,1.839656362
2200262.726,-9.90782877,-1.169503695,1.524815271
2200272.491,-9.75176975,-0.965077962,1.746101897
2200282.257,-9.750785978,-1.123110418,1.844479077
2200292.023,-9.944455661,-1.005834399,1.708280028
2200301.788,-10.05815047,-1.082454777,1.877261132
2200311.554,-10.0586867,-0.96352725,1.823637506
2200321.32,-9.866984563,-0.764738356,1.763082195
2200331.085,-9.942887271,-0.962697619,1.865119056
2200340.851,-9.830583455,-1.088859219,1.55703907
2200350.616,-9.941899467,-0.760722012,1.963899421
2200360.382,-10.05792468,-0.92200321,1.899839501
2200370.148,-9.944096826,-0.96511673,1.744163507
2200379.913,-9.906482132,-0.926810418,1.659479116
2200389.679,-10.01892303,-1.040922984,1.953850806
2200399.445,-9.907199802,-1.008245757,1.587712157
2200409.21,-10.09674893,-0.962728633,1.863568344
2200418.976,-9.82789421,-0.963480729,1.825963574
2200428.741,-9.904780691,-1.003407535,1.829623254
2200438.507,-10.01977375,-1.002624425,1.868778737
2200448.273,-10.02277345,-0.84862382,1.568808976
2200458.038,-10.09786979,-1.044970343,1.751482869
2200467.804,-9.86667411,-1.044117451,1.794127453
2200477.57,-9.791489071,-0.927593527,1.620323634
2200487.335,-9.866359626,-0.963488482,1.825575896
2200497.101,-9.905853163,-0.76555248,1.722376001
2200506.866,-10.05989626,-0.965946361,1.702681957
2200516.632,-10.09831732,-1.005865414,1.706729315
2200526.398,-9.753338141,-1.008214743,1.589262869
2200536.163,-9.905183876,-1.004213905,1.789304738
2200545.929,-9.942572787,-0.88206865,1.896567499
2200555.695,-9.906034596,-0.965915347,1.704232669
2200565.46,-9.830446372,-0.848585053,1.570747366
2200575.226,-9.908183573,-0.8502133,1.489334977
2200584.991,-10.06092438,-0.768002605,1.59986974
2200594.757,-10.06025509,-1.00666403,1.666798477
2200604.523,-10.09961558,-0.928461926,1.576903693
2200614.288,-9.944052476,-1.005028029,1.748598544
2200624.054,-10.02174533,-1.046567576,1.671621192
2200633.82,-9.983904848,-0.847809697,1.60951517
2200643.585,-10.21366922,-1.045799974,1.710001318
2200653.351,-9.983904848,-0.847809697,1.60951517
2200663.116,-10.02299923,-1.009075388,1.546230606
2200672.882,-10.17470788,-0.764800385,1.759980771
2200682.648,-9.908586758,-0.851019671,1.449016461
2200692.413,-9.946201453,-0.889325983,1.533700852
2200702.179,-9.831119692,-0.969931691,1.503415444
2200711.945,-9.752483388,-0.686505238,1.674738123
2200721.71,-9.90957053,-0.692987214,1.350639281
2200731.476,-9.792428493,-0.80947237,1.526381491
2200741.241,-10.10059935,-0.77042947,1.478526513
2200751.007,-9.947455359,-0.851833795,1.408310266
2200760.773,-9.985920774,-0.851841548,1.407922588
2200770.538,-10.02326533,-0.769607592,1.519620386
2200780.304,-9.793504997,-0.931625379,1.418731052
2200790.07,-9.872451753,-0.935672738,1.216363115
2200799.835,-10.06181945,-0.689792747,1.510362634
2200809.601,-9.831341444,-0.770375195,1.48124026
2200819.366,-9.909437479,-0.812721112,1.363944391
2200829.132,-10.10118397,-0.971598707,1.420064665
2200838.898,-9.909840664,-0.813527482,1.323625875
2200848.663,-10.06195653,-0.930066913,1.496654339
2200858.429,-9.716707218,-0.811875974,1.406201298
2200868.195,-9.909034294,-0.811914742,1.404262908
2200877.96,-9.868956138,-0.808681507,1.565924651
2200887.726,-9.86993991,-0.650649051,1.467547471
2200897.491,-9.868686004,-0.688141239,1.592938057
2200907.257,-9.86913354,-0.64903631,1.548184504
2200917.023,-9.947947245,-0.772817566,1.359121677
2200926.788,-9.944451629,-0.645826336,1.708683213
2200936.554,-9.907151419,-0.688148992,1.592550379
2200946.32,-9.908675459,-0.771197072,1.440146387
2200956.085,-10.10109124,-0.691413242,1.429337923
2200965.851,-9.947362626,-0.571648329,1.417583525
2200975.616,-9.908179541,-0.490205237,1.489738162
2200985.382,-10.17654238,-0.56846937,1.576531522
2200995.148,-9.830889876,-0.44947206,1.526396998
2201004.913,-10.17609484,-0.607574298,1.621285075
2201014.679,-9.94610872,-0.609140518,1.542974111
2201024.445,-10.02281377,-0.448704458,1.564777124
2201034.21,-10.02138246,-0.645841843,1.707907857
2201043.976,-9.870387445,-0.611544122,1.422793918
2201053.741,-9.90724012,-0.608326394,1.583680305
2201063.507,-9.946286122,-0.449495321,1.525233964
2201073.273,-9.98569499,-0.691389981,1.430500958
2201083.038,-10.1007324,-0.650695572,1.465221403
2201092.804,-9.945032216,-0.486987509,1.650624549
2201102.57,-9.910328518,-0.374503191,1.27484047
2201112.335,-10.0220074,-0.447091717,1.645414156
2201122.101,-10.10180487,-0.412840517,1.35797415
2201131.866,-10.02321695,-0.449510828,1.524458608
2201141.632,-9.9841266,-0.6482532,1.587339986
2201151.398,-10.02312825,-0.529333426,1.533328681
2201161.163,-10.14031464,-0.372936971,1.353151435
2201170.929,-10.02362014,-0.450317198,1.484140091
2201180.695,-9.792960697,-0.330536779,1.473161049
2201190.46,-9.945568452,-0.368059982,1.597000923
2201200.226,-9.908312593,-0.370471339,1.476433052
2201209.991,-10.02451521,-0.37210734,1.394632985
2201219.757,-9.984078218,-0.328156436,1.592178208
2201229.523,-9.949600304,-0.376123685,1.19381576
2201239.288,-9.983138796,-0.446277593,1.686120351
2201249.054,-9.907373171,-0.488592496,1.570375195
2201258.82,-9.987126298,-0.494252596,1.287370225
2201268.585,-9.947269894,-0.291462864,1.426856784
2201278.351,-9.909118963,-0.37208408,1.395796019
2201288.116,-9.946286122,-0.449495321,1.525233964
2201297.882,-10.1009098,-0.491050375,1.447481256
2201307.648,-9.946374823,-0.369672722,1.51636389
2201317.413,-10.02397897,-0.491034868,1.448256612
2201327.179,-9.948793934,-0.374510944,1.274452792
2201336.945,-9.870742248,-0.292253728,1.387313624
2201346.71,-9.948031914,-0.332986904,1.350654788
2201356.476,-9.869891528,-0.330552286,1.472385693
2201366.241,-9.986856164,-0.373712327,1.314383631
2201376.007,-9.947540028,-0.412003132,1.399843378
2201385.773,-9.909925333,-0.37369682,1.315158987
2201395.538,-10.06226295,-0.290679755,1.466012266
2201405.304,-9.908897211,-0.571640576,1.417971203
2201415.07,-9.948838284,-0.334599645,1.270017756
2201424.835,-9.946955409,-0.210833895,1.458305227
2201434.601,-9.909256046,-0.612358246,1.382087724
2201444.366,-9.870564847,-0.451898925,1.405053771
2201454.132,-10.02474099,-0.532558908,1.372054616
2201463.898,-10.13914943,-0.330606561,1.469671947
2201473.663,-10.10211936,-0.493469486,1.326525707
2201483.429,-9.947584378,-0.372091833,1.395408341
2201493.195,-9.908760128,-0.33136641,1.431679499
2201502.96,-10.10019213,-0.409615036,1.519248215
2201512.726,-10.02541028,-0.293897482,1.305125879
2201522.491,-9.911179239,-0.336204632,1.189768401
2201532.257,-9.984840238,-0.369680476,1.515976212
2201542.023,-9.985690959,-0.331381917,1.430904143
2201551.788,-10.02572476,-0.374526451,1.273677436
2201561.554,-10.02406767,-0.411212269,1.439386538
2201571.32,-10.02657548,-0.336227893,1.188605367
2201581.085,-10.10028083,-0.329792437,1.510378141
2201590.851,-10.02411202,-0.37130097,1.434951501
2201600.616,-9.869758477,-0.450286184,1.485690804
2201610.382,-10.02420476,-0.651486435,1.425678243
2201620.148,-9.831962349,-0.211617005,1.419149745
2201629.913,-10.02397897,-0.491034868,1.448256612
2201639.679,-10.02581346,-0.294703853,1.264807363
2201649.445,-10.06378699,-0.373727835,1.313608275
2201659.21,-10.17940902,-0.534202663,1.289866871
2201668.976,-10.02482969,-0.452736309,1.363184543
2201678.741,-9.989992944,-0.459985889,1.000705574
2201688.507,-10.06571422,-0.457582285,1.120885767
2201698.273,-10.02568041,-0.414437751,1.278112473
2201708.038,-10.10180487,-0.412840517,1.35797415
2201717.804,-10.06253309,-0.411220023,1.43899886
2201727.57,-9.986231227,-0.572462453,1.376877331
2201737.335,-10.06329511,-0.452744063,1.362796864
2201747.101,-9.86846022,-0.527689671,1.615516426
2201756.866,-9.985557907,-0.451115815,1.444209253
2201766.632,-10.13982275,-0.4519532,1.402340025
2201776.398,-9.948390748,-0.373704574,1.314771309
2201786.163,-9.945032216,-0.486987509,1.650624549
2201795.929,-9.986767463,-0.453534926,1.323253704
2201805.695,-9.947269894,-0.291462864,1.426856784
2201815.46,-9.986452979,-0.372905957,1.354702147
2201825.226,-10.02572476,-0.374526451,1.273677436
2201834.991,-10.02397897,-0.491034868,1.448256612
2201844.757,-9.986767463,-0.453534926,1.323253704
2201854.523,-10.02532158,-0.373720081,1.313995953
2201864.288,-10.06231134,-0.610776519,1.461174044
2201874.054,-10.02447086,-0.41201864,1.399068022
2201883.82,-10.0231726,-0.489422127,1.528893644
2201893.585,-10.02362014,-0.450317198,1.484140091
2201903.351,-10.02438216,-0.491841238,1.407938096
2201913.116,-10.17860265,-0.532589922,1.370503904
2201922.882,-9.985066022,-0.530132043,1.493397843
2201932.648,-10.10055097,-0.450332705,1.483364735
2201942.413,-10.06199685,-0.53014755,1.492622487
2201952.179,-9.947540028,-0.412003132,1.399843378
2201961.945,-9.946822358,-0.330567793,1.471610337
2201971.71,-10.25566653,-0.412871531,1.356423437
2201981.476,-9.986678762,-0.533357524,1.332123778
2201991.241,-9.871951804,-0.294672839,1.266358075
2202001.007,-9.947225543,-0.331374164,1.431291821
2202010.773,-10.06136788,-0.368889613,1.555519372
2202020.538,-9.985243423,-0.370486846,1.475657696
2202030.304,-9.985735309,-0.291470618,1.426469106
2202040.07,-9.833038853,-0.333770014,1.311499306
2202049.835,-10.02393462,-0.530946167,1.452691649
2202059.601,-9.832143782,-0.411979872,1.401006412
2202069.366,-10.02447086,-0.41201864,1.399068022
2202079.132,-10.06231134,-0.610776519,1.461174044
2202088.898,-9.948479449,-0.293881975,1.305901235
2202098.663,-9.948257697,-0.493438472,1.328076419
2202108.429,-10.02572476,-0.374526451,1.273677436
2202118.195,-9.986856164,-0.373712327,1.314383631
2202127.96,-10.21711242,-0.492686376,1.365681189
2202137.726,-9.795020973,-0.294657331,1.267133431
2202147.491,-9.986452979,-0.372905957,1.354702147
2202157.257,-10.10225241,-0.373735588,1.313220597
2202167.023,-9.909655199,-0.253156552,1.342172393
2202176.788,-9.833131586,-0.613955479,1.302226047
2202186.554,-10.06562149,-0.177396819,1.130159026
2202196.32,-9.948749583,-0.414422243,1.278887829
2202206.085,-9.947628728,-0.332180534,1.390973304
2202215.851,-10.10216371,-0.453558187,1.32209067
2202225.616,-9.909880983,-0.41360812,1.319594024
2202235.382,-10.21697937,-0.612420274,1.378986299
2202245.148,-9.985021671,-0.570043342,1.49783288
2202254.913,-10.06163802,-0.489429881,1.528505966
2202264.679,-9.985336156,-0.650672311,1.466384437
2202274.445,-10.10059532,-0.410421406,1.478929698
2202284.21,-10.02389027,-0.570857466,1.457126685
2202293.976,-10.06253309,-0.411220023,1.43899886
2202303.741,-10.06401278,-0.534179402,1.291029905
2202313.507,-10.02550301,-0.574082948,1.29585262
2202323.273,-9.986319927,-0.492639855,1.368007257
2202333.038,-9.984840238,-0.369680476,1.515976212
2202342.804,-9.945568452,-0.368059982,1.597000923
2202352.57,-9.870609197,-0.411987625,1.400618734
2202362.335,-9.831829298,-0.331350903,1.432454855
2202372.101,-9.870742248,-0.292253728,1.387313624
2202381.866,-9.870830949,-0.212431129,1.37844355
2202391.632,-10.25611407,-0.373766602,1.311669884
2202401.398,-9.911179239,-0.336204632,1.189768401
2202411.163,-9.987214998,-0.414429997,1.278500151
2202420.929,-10.06410148,-0.454356803,1.282159832
2202430.695,-10.02460391,-0.292284742,1.385762912
2202440.46,-9.947628728,-0.332180534,1.390973304
2202450.226,-9.910151117,-0.534148388,1.292580618
2202459.991,-10.10265559,-0.374541958,1.27290208
2202469.757,-9.833800873,-0.375294054,1.23529731
2202479.523,-9.909389097,-0.492624348,1.368782613
2202489.288,-10.17909454,-0.453573694,1.321315314
2202499.054,-9.831518845,-0.610729998,1.463500112
2202508.82,-10.06266614,-0.291486125,1.42569375
2202518.585,-9.911134889,-0.376115931,1.194203438
2202528.351,-9.948302048,-0.453527172,1.323641382
2202538.116,-10.06414583,-0.414445504,1.277724795
2202547.882,-9.986275577,-0.532551154,1.372442294
2202557.648,-10.02415637,-0.331389671,1.430516465
2202567.413,-10.06293627,-0.412026393,1.398680344
2202577.179,-9.985557907,-0.451115815,1.444209253
2202586.945,-9.98663038,-0.21326076,1.336962
2202596.71,-9.947495677,-0.451914432,1.404278415
2202606.476,-9.985690959,-0.331381917,1.430904143
2202616.241,-10.02478534,-0.492647608,1.367619579
2202626.007,-10.02406767,-0.411212269,1.439386538
2202635.773,-9.986989215,-0.25397843,1.30107852
2202645.538,-9.985110372,-0.490220744,1.488962806
2202655.304,-9.948793934,-0.374510944,1.274452792
2202665.07,-9.908760128,-0.33136641,1.431679499
2202674.835,-10.02442651,-0.451929939,1.403503059
2202684.601,-9.948164965,-0.213253006,1.337349678
2202694.366,-9.947048142,-0.491019361,1.449031968
2202704.132,-10.10104285,-0.371316477,1.434176145
2202713.898,-10.06194847,-0.210050786,1.497460709
2202723.663,-10.06289192,-0.451937692,1.403115381
2202733.429,-9.986364278,-0.452728556,1.363572221
2202743.195,-9.986408628,-0.412817256,1.359137184
2202752.96,-9.945479752,-0.44788258,1.605870996
2202762.726,-9.907373171,-0.488592496,1.570375195
2202772.491,-9.985513557,-0.491027114,1.44864429
2202782.257,-9.946286122,-0.449495321,1.525233964
2202792.023,-10.06329511,-0.452744063,1.362796864
2202801.788,-9.947495677,-0.451914432,1.404278415
2202811.554,-10.02527723,-0.41363138,1.318430989
2202821.32,-10.10117994,-0.611590643,1.42046785
2202831.085,-9.985291805,-0.690583611,1.470819474
2202840.851,-9.947406977,-0.53173703,1.413148488
2202850.616,-9.870834981,-0.572439193,1.378040365
2202860.382,-9.94754406,-0.772011196,1.399440193
2202870.148,-9.909163313,-0.33217278,1.391360983
2202879.913,-9.86998426,-0.610737751,1.463112434
2202889.679,-9.946241772,-0.48940662,1.529669
2202899.445,-9.753245408,-0.728029277,1.598536128
2202909.21,-9.946600606,-0.53012429,1.493785521
2202918.976,-10.06329511,-0.452744063,1.362796864
2202928.741,-10.02442651,-0.451929939,1.403503059
2202938.507,-10.02303955,-0.609156025,1.542198755
2202948.273,-10.10041792,-0.570066603,1.496669846
2202958.038,-10.10046227,-0.530155304,1.492234809
2202967.804,-9.908042458,-0.249931071,1.503446458
2202977.57,-9.869669776,-0.530108782,1.494560877
2202987.335,-10.02357579,-0.490228497,1.488575128
2202997.101,-9.984707187,-0.489414374,1.529281322
2203006.866,-9.98336458,-0.60672916,1.663541982
2203016.632,-9.906030565,-0.605907283,1.704635854
2203026.398,-9.791888225,-0.568391834,1.580408303
2203036.163,-10.09988168,-0.688994131,1.550293472
2203045.929,-9.944451629,-0.645826336,1.708683213
2203055.695,-10.02303955,-0.609156025,1.542198755
2203065.46,-9.906925636,-0.527697425,1.615128748
2203075.226,-9.90719577,-0.648237693,1.588115342
2203084.991,-10.06092438,-0.768002605,1.59986974
2203094.757,-10.09858342,-0.766397618,1.680119095
2203104.523,-10.17703829,-0.849461205,1.526939747
2203114.288,-10.09786575,-0.684962279,1.751886054
2203124.054,-9.944451629,-0.645826336,1.708683213
2203133.82,-9.676536329,-0.528457274,1.5771363
2203143.585,-9.750511813,-0.642562087,1.871895668
2203153.351,-9.79148504,-0.567585464,1.620726819
2203163.116,-9.945661185,-0.648245447,1.587727664
2203172.882,-9.790142433,-0.68490025,1.754987478
2203182.648,-9.828652199,-0.644996705,1.750164763
2203192.413,-9.867028913,-0.724827057,1.758647159
2203202.179,-9.867073263,-0.684915758,1.754212122
2203211.945,-9.752842223,-0.727222907,1.638854644
2203221.71,-9.869403674,-0.769576578,1.521171098
2203231.476,-9.944500012,-0.9659231,1.703844991
2203241.241,-10.17354671,-1.082478038,1.876098098
2203251.007,-9.981711521,-1.003423042,1.828847898
2203260.773,-10.21093562,-0.960332783,1.983360858
2203270.538,-9.982336458,-0.804672916,1.766354198
2203280.304,-9.942931621,-0.92278632,1.860684019
2203290.07,-10.09589821,-1.001027192,1.948640413
2203299.835,-10.02008824,-1.083253394,1.837330294
2203309.601,-9.865464555,-1.04169834,1.915083002
2203319.366,-10.01816101,-0.999398944,2.030052802
2203329.132,-9.86591209,-1.002593411,1.870329449
2203338.898,-9.75168105,-1.044900561,1.754971971
2203348.663,-10.01928187,-1.081640653,1.917967326
2203358.429,-10.01941492,-0.961906756,1.904662216
2203368.195,-10.09603529,-1.241301358,1.934932118
2203377.96,-10.01896738,-1.001011685,1.949415769
2203387.726,-9.749709474,-1.00095741,1.952129515
2203397.491,-9.941589015,-1.040101106,1.994944678
2203407.257,-9.979695595,-0.99939119,2.03044048
2203417.023,-9.82632582,-0.920343948,1.982802602
2203426.788,-9.826640305,-1.000972917,1.951354159
2203436.554,-9.789340094,-1.043295573,1.835221325
2203446.32,-9.711288409,-0.961038357,1.948082157
2203456.085,-9.903571135,-1.000988424,1.950578803
2203465.851,-9.903885619,-1.081617393,1.919130361
2203475.616,-9.941500314,-1.119923705,2.003814752
2203485.382,-9.903708218,-1.24126259,1.936870508
2203495.148,-9.788174889,-1.000965163,1.951741837
2203504.913,-9.865734689,-1.162238608,1.888069596
2203514.679,-9.826773356,-0.881239019,1.938049049
2203524.445,-10.01995518,-1.202987292,1.850635404
2203534.21,-10.13450071,-1.241309111,1.93454444
2203543.976,-9.941411613,-1.199746303,2.012684826
2203553.741,-9.864928318,-1.160625867,1.968706629
2203563.507,-9.904022702,-1.321891559,1.905422065
2203573.273,-9.903885619,-1.081617393,1.919130361
2203583.038,-9.864121948,-1.159013127,2.049343661
2203592.804,-9.748499919,-0.998538299,2.073085064
2203602.57,-9.940919727,-1.278762532,2.061873415
2203612.335,-10.09473704,-1.318704845,2.06475774
2203622.101,-9.904022702,-1.321891559,1.905422065
2203631.866,-9.901244757,-1.276335667,2.183216642
2203641.632,-10.01839083,-1.519858575,2.007071247
2203651.398,-9.710304637,-1.119070813,2.046459336
2203661.163,-9.940919727,-1.278762532,2.061873415
2203670.929,-9.787416901,-1.319449187,2.027540648
2203680.695,-9.903619517,-1.321085188,1.945740581
2203690.46,-9.864706566,-1.360182364,1.990881812
2203700.226,-9.712905182,-1.324271902,1.786404906
2203709.991,-9.941101161,-1.479125398,2.043730083
2203719.757,-9.903978352,-1.361802858,1.909857102
2203729.523,-9.979163391,-1.478326782,2.083660921
2203739.288,-9.787820086,-1.320255557,1.987222132
2203749.054,-9.709276515,-1.317014569,2.149271553
2203758.82,-9.635345382,-1.162998457,1.850077148
2203768.585,-9.863855846,-1.398480922,2.075953882
2203778.351,-9.903393734,-1.160633621,1.96831895
2203788.116,-9.942173633,-1.241270343,1.93648283
2203797.882,-9.939798873,-1.196520822,2.173958891
2203807.648,-9.748322517,-1.158183496,2.090825211
2203817.413,-9.940157707,-1.237238492,2.138075411
2203827.179,-9.825971017,-1.239634342,2.018282896
2203836.945,-9.864569484,-1.119908198,2.004590108
2203846.71,-9.941008428,-1.198939933,2.053003342
2203856.476,-9.825479131,-1.31865057,2.067471486
2203866.241,-9.903216332,-1.320278818,1.986059098
2203876.007,-9.787102417,-1.238820218,2.058989091
2203885.773,-9.74922162,-1.439981702,2.00091492
2203895.538,-9.863271227,-1.197311685,2.13441573
2203905.304,-9.826733037,-1.281158382,1.942080901
2203915.07,-9.789073992,-1.282763369,1.861831546
2203924.835,-9.941278562,-1.319480201,2.025989936
2203934.601,-9.71039737,-1.399256278,2.037186078
2203944.366,-9.940383491,-1.397690059,2.115497042
2203954.132,-9.787820086,-1.320255557,1.987222132
2203963.898,-9.672827026,-1.321038667,1.94806665
2203973.663,-9.93953277,-1.435988618,2.200569111
2203983.429,-9.825926667,-1.279545641,2.022717933
2203993.195,-9.941145511,-1.439214099,2.039295046
2204002.96,-10.05586844,-1.317890721,2.105463934
2204012.726,-9.863988897,-1.278747025,2.062648771
2204022.491,-10.01699984,-1.317076597,2.146170129
2204032.257,-9.824358277,-1.236408861,2.179556962
2204042.023,-9.864166298,-1.119101828,2.044908624
2204051.788,-9.824672761,-1.31703783,2.148108519
2204061.554,-9.785981562,-1.156578509,2.171074566
2204071.32,-9.787638653,-1.119892691,2.005365464
2204081.085,-9.634224528,-1.080756748,1.962162623
2204090.851,-9.673407612,-1.16219984,1.890007986
2204100.616,-9.864436432,-1.239642096,2.017895218
2204110.382,-9.710127236,-1.27871601,2.064199484
2204120.148,-9.749217588,-1.079973638,2.001318105
2204129.913,-9.864166298,-1.119101828,2.044908624
2204139.679,-9.902901848,-1.239649849,2.01750754
2204149.445,-10.01740302,-1.317882968,2.105851612
2204159.21,-10.0554209,-1.35699565,2.150217487
2204168.976,-9.787058066,-1.278731517,2.063424128
2204178.741,-9.747294395,-1.356127251,2.193637428
2204188.507,-9.863541361,-1.317851954,2.107402325
2204198.273,-9.825971017,-1.239634342,2.018282896
2204208.038,-9.865331503,-1.161432238,1.928388112
2204217.804,-9.710486071,-1.31943368,2.028316004
2204227.57,-9.749217588,-1.079973638,2.001318105
2204237.335,-9.787638653,-1.119892691,2.005365464
2204247.101,-9.940738294,-1.078399665,2.080016748
2204256.866,-9.940246408,-1.157415893,2.129205338
2204266.632,-9.904155754,-1.202157661,1.892116955
2204276.398,-9.903526785,-1.040899723,1.95501384
2204286.163,-9.865331503,-1.161432238,1.928388112
2204295.929,-9.7096797,-1.317820939,2.108953037
2204305.695,-9.864658184,-1.040085599,1.995720034
2204315.46,-9.903127631,-1.400101417,1.994929171
2204325.226,-9.827180573,-1.242053453,1.897327348
2204334.991,-9.902901848,-1.239649849,2.01750754
2204344.757,-10.01982213,-1.32272119,1.863940515
2204354.523,-9.94194785,-1.080818776,1.959061199
2204364.288,-9.864839618,-1.240448466,1.977576702
2204374.054,-9.787594303,-1.15980399,2.009800501
2204383.82,-9.710482039,-0.959425616,2.028719189
2204393.585,-9.905006474,-1.163859102,1.807044885
2204403.351,-9.865779039,-1.122327309,1.883634559
2204413.116,-9.9419922,-1.040907477,1.954626162
2204422.882,-10.02322502,-1.169526955,1.523652237
2204432.648,-9.942572787,-0.88206865,1.896567499
2204442.413,-10.05582006,-0.997793957,2.110302156
2204452.179,-9.790594,-1.005803385,1.70983074
2204461.945,-9.903659836,-0.921165825,1.94170873
2204471.71,-9.90473634,-1.043318834,1.834058291
2204481.476,-9.750068309,-1.041675079,1.916246036
2204491.241,-9.788130539,-1.040876463,1.956176874
2204501.007,-10.01932622,-1.041729354,1.91353229
2204510.773,-9.826507253,-1.120706815,1.96465927
2204520.538,-9.981711521,-1.003423042,1.828847898
2204530.304,-9.75096338,-0.963465221,1.82673893
2204540.07,-9.750826297,-0.723191055,1.840447225
2204549.835,-9.981352686,-0.962705372,1.864731378
2204559.601,-9.904869391,-0.923584936,1.820753181
2204569.366,-9.982429191,-1.084858381,1.757080939
2204579.132,-9.826640305,-1.000972917,1.951354159
2204588.898,-9.751947152,-0.805432765,1.72836175
2204598.663,-9.789920681,-0.884456747,1.777162662
2204608.429,-9.943379157,-0.883681391,1.815930466
2204618.195,-9.866537027,-0.803843285,1.807835749
2204627.96,-9.90549836,-1.084842874,1.757856296
2204637.726,-10.02317663,-0.849430191,1.528490459
2204647.491,-10.05886814,-1.163890117,1.805494173
2204657.257,-9.788578074,-1.001771534,1.911423321
2204667.023,-9.791041536,-0.966698456,1.665077187
2204676.788,-10.09880921,-0.926849185,1.657540726
2204686.554,-9.905990246,-1.005826646,1.708667706
2204696.32,-10.05935599,-0.724865825,1.756708769
2204706.085,-10.06002931,-0.846212463,1.689376846
2204715.851,-9.945213649,-0.687350376,1.632481217
2204725.616,-9.869000488,-0.768770208,1.561489614
2204735.382,-9.981038202,-0.882076404,1.896179821
2204745.148,-9.790860103,-0.76633559,1.683220519
2204754.913,-10.01726191,-0.717600738,2.119963093
2204764.679,-9.904687958,-0.72322207,1.838896513
2204774.445,-9.789827948,-0.604271282,1.786435921
2204784.21,-9.905853163,-0.76555248,1.722376001
2204793.976,-9.674564754,-0.484514123,1.774293844
2204803.741,-9.984352384,-0.808704768,1.564761617
2204813.507,-9.903881588,-0.721609329,1.919533546
2204823.273,-9.868597303,-0.767963837,1.60180813
2204833.038,-10.05962209,-0.485398029,1.730098548
2204842.804,-9.905538679,-0.684923511,1.753824444
2204852.57,-9.908675459,-0.771197072,1.440146387
2204862.335,-9.790142433,-0.68490025,1.754987478
2204872.101,-9.751721368,-0.644981198,1.750940119
2204881.866,-10.02048739,-0.724051701,1.797414963
2204891.632,-10.06128321,-0.808720275,1.563986261
2204901.398,-9.908272274,-0.770390702,1.480464904
2204911.163,-10.1344483,-0.561204283,1.939785847
2204920.929,-10.06074295,-0.567639739,1.618013073
2204930.695,-10.09938979,-0.768010359,1.599482062
2204940.46,-9.945931319,-0.768785715,1.560714258
2204950.226,-9.791755174,-0.688125732,1.593713413
2204959.991,-9.676806463,-0.648997542,1.550122894
2204969.757,-9.980006048,-0.720012096,1.999395222
2204979.523,-9.751362533,-0.604263528,1.786823599
2204989.288,-10.09795446,-0.60513968,1.74301598
2204999.054,-9.790948803,-0.686512991,1.674350445
2205008.82,-10.02245493,-0.407986788,1.600660603
2205018.585,-9.906389399,-0.646624953,1.668752375
2205028.351,-9.907014336,-0.447874827,1.606258674
2205038.116,-9.751406884,-0.564352229,1.782388562
2205047.882,-9.753197026,-0.407932513,1.60337435
2205057.648,-9.945479752,-0.44788258,1.605870996
2205067.413,-10.13633117,-0.684970032,1.751498376
2205077.179,-9.829817404,-0.687327115,1.633644251
2205086.945,-9.867923984,-0.646617199,1.669140053
2205096.71,-10.17484094,-0.645066487,1.746675661
2205106.476,-9.983050096,-0.526100192,1.694990424
2205116.241,-10.02362417,-0.810325262,1.483736906
2205126.007,-10.17443775,-0.644260116,1.786994177
2205135.773,-10.02528126,-0.773639444,1.318027804
2205145.538,-10.02218883,-0.647454584,1.627270824
2205155.304,-9.867520799,-0.645810829,1.709458569
2205165.07,-9.983993549,-0.767987098,1.600645096
2205174.835,-9.947140874,-0.771204826,1.439758709
2205184.601,-10.02366852,-0.770413963,1.479301869
2205194.366,-10.177127,-0.769638607,1.518069673
2205204.132,-9.945124949,-0.767172974,1.641351291
2205213.898,-9.90804649,-0.609939135,1.503043273
2205223.663,-10.02210013,-0.727277182,1.636140898
2205233.429,-9.793230831,-0.451077047,1.446147643
2205243.195,-9.675911392,-0.7272074,1.63963
2205252.96,-10.09979298,-0.768816729,1.559163546
2205262.726,-9.868774705,-0.60831864,1.584067983
2205272.491,-9.946600606,-0.53012429,1.493785521
2205282.257,-9.945080598,-0.807084273,1.645786327
2205292.023,-9.904373474,-0.642593101,1.870344956
2205301.788,-9.944987866,-0.526898808,1.655059586
2205311.554,-9.943419475,-0.483762028,1.811898614
2205321.32,-10.02227753,-0.567631985,1.618400751
2205331.085,-9.905224194,-0.604294542,1.785272887
2205340.851,-10.13704884,-0.766405372,1.679731417
2205350.616,-10.10005908,-0.529348933,1.532553325
2205360.382,-10.02030596,-0.523688834,1.815558295
2205370.148,-9.944810464,-0.686544005,1.672799733
2205379.913,-9.94606437,-0.649051817,1.547409148
2205389.679,-9.98493297,-0.649865941,1.506702953
2205399.445,-9.982110674,-0.644221349,1.788932567
2205409.21,-10.02066479,-0.564406504,1.779674816
2205418.976,-9.86765385,-0.526076931,1.696153458
2205428.741,-9.792069658,-0.768754701,1.56226497
2205438.507,-10.09755127,-0.60433331,1.783334496
2205448.273,-9.90643375,-0.606713653,1.664317338
2205458.038,-10.02384592,-0.610768766,1.461561722
2205467.804,-10.06033976,-0.566833368,1.658331589
2205477.57,-10.09884953,-0.526929823,1.653508874
2205487.335,-9.868012685,-0.5667946,1.660269979
2205497.101,-10.13897203,-0.490251758,1.487412094
2205506.866,-9.9064781,-0.566802354,1.659882301
2205516.632,-9.945975669,-0.728874416,1.556279221
2205526.398,-9.715808115,-0.530077768,1.496111589
2205536.163,-10.29126934,-0.807154055,1.642297225
2205545.929,-10.09840199,-0.566034751,1.698262427
2205555.695,-9.946511906,-0.609946888,1.502655595
2205565.46,-9.98560629,-0.771212579,1.439371031
2205575.226,-9.830845526,-0.489383359,1.530832035
2205584.991,-9.907510254,-0.728866662,1.556666899
2205594.757,-9.947943213,-0.412809503,1.359524862
2205604.523,-10.0230839,-0.569244726,1.537763718
2205614.288,-9.755974972,-0.453488405,1.325579773
2205624.054,-9.947136843,-0.411196762,1.440161894
2205633.82,-9.946467555,-0.649858187,1.507090631
2205643.585,-10.02187435,-0.566825615,1.658719267
2205653.351,-9.830446372,-0.848585053,1.570747366
2205663.116,-9.984348352,-0.448696704,1.565164802
2205672.882,-10.02057609,-0.644229102,1.788544889
2205682.648,-10.06307336,-0.652300559,1.384972048
2205692.413,-9.94610872,-0.609140518,1.542974111
2205702.179,-10.0230839,-0.569244726,1.537763718
2205711.945,-10.10001473,-0.569260233,1.536988362
2205721.71,-9.830486691,-0.44866569,1.566715514
2205731.476,-9.868996457,-0.408762144,1.561892799
2205741.241,-9.945838586,-0.48860025,1.569987517
2205751.007,-9.947854512,-0.492632101,1.368394935
2205760.773,-10.10117994,-0.611590643,1.42046785
2205770.538,-10.02263637,-0.608349655,1.582517271
2205780.304,-9.947947245,-0.772817566,1.359121677
2205790.07,-9.867923984,-0.646617199,1.669140053
2205799.835,-10.01990277,-0.522882464,1.855876811
2205809.601,-9.906611151,-0.447068456,1.646577191
2205819.366,-10.05872702,-0.563607887,1.819605654
2205829.132,-10.13776248,-0.487832647,1.608367643
2205838.898,-9.86922224,-0.569213711,1.53931443
2205848.663,-9.945616835,-0.688156746,1.592162701
2205858.429,-9.945169299,-0.727261675,1.636916254
2205868.195,-10.02366852,-0.770413963,1.479301869
2205877.96,-10.09974863,-0.808728028,1.563598583
2205887.726,-9.94687074,-0.650664558,1.466772115
2205897.491,-10.09938979,-0.768010359,1.599482062
2205907.257,-9.907554604,-0.688955363,1.552231862
2205917.023,-9.906703884,-0.727253921,1.637303932
2205926.788,-10.06119048,-0.52853481,1.573259519
2205936.554,-9.793186481,-0.490988346,1.45058268
2205946.32,-9.908897211,-0.571640576,1.417971203
2205956.085,-9.830845526,-0.489383359,1.530832035
2205965.851,-9.908538376,-0.530922906,1.453854683
2205975.616,-9.946334504,-0.769592085,1.520395742
2205985.382,-9.944943515,-0.566810108,1.659494623
2205995.148,-10.02469664,-0.572470207,1.376489653
2206004.913,-9.945661185,-0.648245447,1.587727664
2206014.679,-9.985110372,-0.490220744,1.488962806
2206024.445,-9.90804649,-0.609939135,1.503043273
2206034.21,-9.946467555,-0.649858187,1.507090631
2206043.976,-10.10077675,-0.610784273,1.460786366
2206053.741,-10.06137192,-0.728897676,1.555116187
2206063.507,-9.945794236,-0.528511549,1.574422554
2206073.273,-9.905538679,-0.684923511,1.753824444
2206083.038,-9.98488862,-0.68977724,1.51113799
2206092.804,-9.945213649,-0.687350376,1.632481217
2206102.57,-9.94835043,-0.773623937,1.31880316
2206112.335,-9.869581075,-0.609931381,1.503430951
2206122.101,-10.09871648,-0.64666372,1.666813984
2206131.866,-10.02178565,-0.646648213,1.66758934
2206141.632,-10.13789956,-0.728106813,1.594659347
2206151.398,-9.677657184,-0.610698984,1.465050825
2206161.163,-10.06231134,-0.610776519,1.461174044
2206170.929,-10.06298466,-0.732123158,1.393842122
2206180.695,-9.984485435,-0.68897087,1.551456506
2206190.46,-10.09898661,-0.767203988,1.639800578
2206200.226,-9.869089189,-0.688947609,1.552619541
2206209.991,-9.830490723,-0.808673753,1.566312329
2206219.757,-10.02142681,-0.605930544,1.70347282
2206229.523,-9.753692943,-0.688924349,1.553782575
2206239.288,-9.984441085,-0.728882169,1.555891543
2206249.054,-9.791710823,-0.728037031,1.59814845
2206258.82,-10.02303955,-0.609156025,1.542198755
2206268.585,-9.98332023,-0.64664046,1.667977018
2206278.351,-9.98641266,-0.77282532,1.358733999
2206288.116,-9.946290154,-0.809503384,1.524830779
2206297.882,-9.985114404,-0.850228808,1.488559621
2206307.648,-9.792202709,-0.649020803,1.54895986
2206317.413,-9.943959744,-0.724842564,1.757871803
2206327.179,-9.985158754,-0.810317508,1.484124584
2206336.945,-9.983231529,-0.726463058,1.676847092
2206346.71,-10.02366852,-0.770413963,1.479301869
2206356.476,-9.945705535,-0.608334147,1.583292627
2206366.241,-10.09952688,-1.008284525,1.585773767
2206376.007,-10.06034379,-0.926841432,1.657928404
2206385.773,-9.908316624,-0.730479403,1.476029867
2206395.538,-9.793996883,-0.852609151,1.369542462
2206405.304,-9.90719577,-0.648237693,1.588115342
2206415.07,-10.09911966,-0.647470091,1.626495468
2206424.835,-10.02237026,-0.84781745,1.609127492
2206434.601,-9.982739643,-0.805479286,1.726035682
2206444.366,-9.945705535,-0.608334147,1.583292627
2206454.132,-9.868956138,-0.808681507,1.565924651
2206463.898,-9.944451629,-0.645826336,1.708683213
2206473.663,-9.983275879,-0.686551759,1.672412055
2206483.429,-9.944048444,-0.645019965,1.749001729
2206493.195,-9.945483783,-0.807890644,1.605467811
2206502.96,-9.828249013,-0.644190334,1.790483279
2206512.726,-10.0590415,-0.644236856,1.788157211
2206522.491,-9.790771402,-0.846158188,1.692090593
2206532.257,-9.906167647,-0.846181449,1.690927558
2206542.023,-10.02151954,-0.886116009,1.694199561
2206551.788,-10.02084622,-0.76476937,1.761531483
2206561.554,-9.868149768,-0.807068766,1.646561683
2206571.32,-9.983412962,-0.926825925,1.65870376
2206581.085,-9.983501663,-0.847003326,1.649833686
2206590.851,-9.943871043,-0.804665162,1.766741876
2206600.616,-9.946648989,-0.850221054,1.488947299
2206610.382,-10.09710777,-1.003446303,1.827684864
2206620.148,-9.868552953,-0.807875137,1.606243167
2206629.913,-10.09880921,-0.926849185,1.657540726
2206639.679,-9.86595644,-0.962682112,1.865894412
2206649.445,-10.13772216,-0.88775201,1.612399494
2206659.21,-9.8293739,-1.086440108,1.677994619
2206668.976,-9.753874377,-0.889287215,1.535639242
2206678.741,-9.865641956,-0.882053143,1.897342855
2206688.507,-9.867121646,-1.005012522,1.7493739
2206698.273,-10.02084622,-0.76476937,1.761531483
2206708.038,-10.09804719,-0.885325146,1.733742721
2206717.804,-10.02277345,-0.84862382,1.568808976
2206727.57,-9.907244152,-0.968334458,1.58327712
2206737.335,-9.905361277,-0.844568708,1.771564591
2206747.101,-9.982517891,-1.005035783,1.748210866
2206756.866,-10.17493367,-0.925251952,1.737402402
2206766.632,-9.983054128,-0.886108255,1.694587239
2206776.398,-9.943556558,-0.724036194,1.798190319
2206786.163,-9.789340094,-1.043295573,1.835221325
2206795.929,-9.830402022,-0.888496352,1.575182403
2206805.695,-9.829910136,-0.96751258,1.624370992
2206815.46,-10.02058012,-1.004237166,1.788141704
2206825.226,-9.828474797,-0.804641902,1.76790491
2206834.991,-9.868597303,-0.767963837,1.60180813
2206844.757,-9.868911788,-0.848592806,1.570359688
2206854.523,-9.980497934,-0.640995867,1.950206632
2206864.288,-9.905720112,-0.885286378,1.735681112
2206874.054,-10.02156389,-0.84620471,1.689764524
2206883.82,-9.983368612,-0.966737224,1.663138796
2206893.585,-9.945842618,-0.848608313,1.569584332
2206903.351,-9.867883666,-1.046536562,1.673171904
2206913.116,-9.867702232,-0.846173695,1.691315237
2206922.882,-9.749261939,-1.040062339,1.996883069
2206932.648,-9.905675762,-0.925197677,1.740116148
2206942.413,-9.866541059,-1.163851349,1.807432563
2206952.179,-9.791041536,-0.966698456,1.665077187
2206961.945,-9.944366961,-1.085656998,1.717150101
2206971.71,-10.01941492,-0.961906756,1.904662216
2206981.476,-9.868956138,-0.808681507,1.565924651
2206991.241,-9.90392997,-1.041706094,1.914695324
2207001.007,-9.981844572,-0.883689144,1.815542788
2207010.773,-9.904958092,-0.843762338,1.811883107
2207020.538,-9.906123297,-0.886092748,1.695362595
2207030.304,-9.713796221,-0.88605398,1.697300985
2207040.07,-9.905808813,-0.805463779,1.726811038
2207049.835,-10.02170098,-1.086478875,1.676056229
2207059.601,-9.789698929,-1.084013243,1.799337846
2207069.366,-10.06097276,-1.08809937,1.595031518
2207079.132,-10.0573441,-1.080842037,1.957898165
2207088.898,-9.868286851,-1.047342932,1.632853388
2207098.663,-9.864613834,-1.079996899,2.000155071
2207108.429,-9.944947547,-0.926818171,1.659091438
2207118.195,-10.09782544,-1.084881642,1.755917905
2207127.96,-9.90473634,-1.043318834,1.834058291
2207137.726,-9.751322215,-1.004182891,1.79085545
2207147.491,-9.906034596,-0.965915347,1.704232669
2207157.257,-9.790727051,-0.886069487,1.696525629
2207167.023,-9.943334807,-0.92359269,1.820365503
2207176.788,-9.982965427,-0.965930854,1.703457313
2207186.554,-9.984755569,-0.809511138,1.5244431
2207196.32,-9.751814101,-0.925166663,1.741666861
2207206.085,-9.790682701,-0.925980787,1.700960666
2207215.851,-9.790638351,-0.965892086,1.705395703
2207225.616,-9.945350732,-0.927624542,1.618772921
2207235.382,-9.94194785,-1.080818776,1.959061199
2207245.148,-9.906034596,-0.965915347,1.704232669
2207254.913,-9.867077295,-1.044923821,1.753808937
2207264.679,-9.791130237,-0.886875858,1.656207113
2207274.445,-9.790190815,-1.004997015,1.750149256
2207284.21,-10.09742225,-1.084075272,1.796236422
2207293.976,-9.715138828,-0.768739193,1.563040326
2207303.741,-9.864746885,-0.960263001,1.986849961
2207313.507,-9.868464252,-0.887697735,1.615113241
2207323.273,-10.02183403,-0.966744978,1.662751118
2207333.038,-9.866807161,-0.924383553,1.780822343
2207342.804,-9.789428795,-0.963472975,1.826351252
2207352.57,-9.906078947,-0.926004047,1.699797632
2207362.335,-9.982606592,-0.925213184,1.739340792
2207372.101,-9.868508603,-0.847786436,1.610678204
2207381.866,-9.75100773,-0.923553922,1.822303893
2207391.632,-9.942347003,-0.721617083,1.919145868
2207401.398,-9.711554511,-0.721570561,1.921471936
2207411.163,-9.905720112,-0.885286378,1.735681112
2207420.929,-10.02035434,-0.843785599,1.810720073
2207430.695,-9.905808813,-0.805463779,1.726811038
2207440.46,-10.01937057,-1.001818055,1.909097253
2207450.226,-9.906256348,-0.76635885,1.682057485
2207459.991,-9.942887271,-0.962697619,1.865119056
2207469.757,-9.943737992,-0.92439906,1.780046987
2207479.523,-10.0576102,-0.841374241,1.931287944
2207489.288,-9.904825041,-0.963496236,1.825188218
2207499.054,-9.905897513,-0.725641181,1.717940964
2207508.82,-9.945395083,-0.887713242,1.614337885
2207518.585,-9.945036248,-0.846995573,1.650221364
2207528.351,-10.06079133,-0.887736503,1.613174851
2207538.116,-9.868061067,-0.886891365,1.655431757
2207547.882,-9.905587061,-1.005020276,1.748986222
2207557.648,-9.866762811,-0.964294852,1.785257379
2207567.413,-9.825430749,-0.998553806,2.072309708
2207577.179,-9.982965427,-0.965930854,1.703457313
2207586.945,-10.02116071,-0.845398339,1.730083041
2207596.71,-9.982203407,-0.924406814,1.779659309
2207606.476,-9.866625728,-0.724020687,1.798965675
2207616.241,-9.942572787,-0.88206865,1.896567499
2207626.007,-9.905853163,-0.76555248,1.722376001
2207635.773,-9.982425159,-0.724850318,1.757484125
2207645.538,-9.943467858,-0.803858792,1.807060392
2207655.304,-9.752035852,-0.725610166,1.719491677
2207665.07,-10.02021725,-0.603511433,1.824428369
2207674.835,-10.02124941,-0.765575741,1.721212967
2207684.601,-9.944407279,-0.685737635,1.71311825
2207694.366,-9.866670078,-0.684109387,1.794530638
2207704.132,-9.906836935,-0.607520024,1.623998821
2207713.898,-9.945931319,-0.768785715,1.560714258
2207723.663,-10.02366852,-0.770413963,1.479301869
2207733.429,-9.907421553,-0.808689261,1.565536973
2207743.195,-9.827353942,-0.722400192,1.879990386
2207752.96,-9.941540633,-0.720004342,1.9997829
2207762.726,-9.867968334,-0.6067059,1.664705016
2207772.491,-10.02026564,-0.923608197,1.819590147
2207782.257,-9.946334504,-0.769592085,1.520395742
2207792.023,-10.02357982,-0.850236561,1.488171943
2207801.788,-9.751902801,-0.845344064,1.732796787
2207811.554,-10.06016236,-0.726478565,1.676071736
2207821.32,-10.13696014,-0.84622797,1.68860149
2207831.085,-9.945036248,-0.846995573,1.650221364
2207840.851,-10.13785521,-0.768018112,1.599094384
2207850.616,-9.946157103,-0.929237282,1.538135889
2207860.382,-9.945709567,-0.968342211,1.582889442
2207870.148,-9.944991898,-0.886906872,1.654656401
2207879.913,-10.09876486,-0.966760485,1.661975762
2207889.679,-9.98560629,-0.771212579,1.439371031
2207899.445,-10.06020671,-0.686567266,1.671636699
2207909.21,-9.942347003,-0.721617083,1.919145868
2207918.976,-9.86913354,-0.64903631,1.548184504
2207928.741,-10.02165259,-0.766382111,1.680894451
2207938.507,-9.982828344,-0.725656688,1.717165608
2207948.273,-9.903478402,-0.720802959,1.959852062
2207958.038,-9.983275879,-0.686551759,1.672412055
2207967.804,-10.0590415,-0.644236856,1.788157211
2207977.57,-10.09786575,-0.684962279,1.751886054
2207987.335,-10.02053174,-0.684140401,1.792979926
2207997.101,-9.942750188,-0.722423453,1.878827351
2208006.866,-9.790231134,-0.605077652,1.746117404
2208016.632,-9.751632667,-0.724803796,1.759810193
2208026.398,-9.829817404,-0.687327115,1.633644251
2208036.163,-10.02205578,-0.767188481,1.640575934
2208045.929,-9.944092795,-0.605108666,1.744566692
2208055.695,-10.0589528,-0.724059454,1.797027285
2208065.46,-9.829103766,-0.96589984,1.705008025
2208075.226,-9.791440689,-0.607496763,1.625161856
2208084.991,-9.944451629,-0.645826336,1.708683213
2208094.757,-9.908090841,-0.570027835,1.498608236
2208104.523,-9.908272274,-0.770390702,1.480464904
2208114.288,-10.05980352,-0.685760896,1.711955215
2208124.054,-9.868774705,-0.60831864,1.584067983
2208133.82,-9.79072302,-0.526061424,1.696928815
2208143.585,-9.905583029,-0.645012212,1.749389407
2208153.351,-9.714957394,-0.568376327,1.581183659
2208163.116,-9.947499709,-0.811922495,1.40387523
2208172.882,-9.866803129,-0.564375489,1.781225528
2208182.648,-9.943600909,-0.684124894,1.793755282
2208192.413,-10.10055097,-0.450332705,1.483364735
2208202.179,-9.906792584,-0.647431323,1.628433858
2208211.945,-9.597545223,-0.564321215,1.783939274
2208221.71,-9.947495677,-0.451914432,1.404278415
2208231.476,-9.790634319,-0.605884022,1.705798888
2208241.241,-9.942750188,-0.722423453,1.878827351
2208251.007,-10.02057609,-0.644229102,1.788544889
2208260.773,-10.02205578,-0.767188481,1.640575934
2208270.538,-9.867299047,-0.845367325,1.731633753
2208280.304,-9.866670078,-0.684109387,1.794530638
2208290.07,-9.984263683,-0.888527366,1.57363169
2208299.835,-9.982380808,-0.764761617,1.761919161
2208309.601,-9.943959744,-0.724842564,1.757871803
2208319.366,-9.944810464,-0.686544005,1.672799733
2208329.132,-10.01927783,-0.72163259,1.918370512
2208338.898,-9.790815752,-0.806246889,1.687655556
2208348.663,-10.02205578,-0.767188481,1.640575934
2208358.429,-9.829458569,-0.646609445,1.669527731
2208368.195,-10.17659076,-0.888566134,1.5716933
2208377.96,-10.09925674,-0.887744257,1.612787173
2208387.726,-9.868194118,-0.767157467,1.642126647
2208397.491,-10.13816969,-0.848647081,1.567645941
2208407.257,-9.83111566,-0.609923627,1.503818629
2208417.023,-9.98336458,-0.60672916,1.663541982
2208426.788,-10.02214448,-0.687365883,1.631705861
2208436.554,-9.907018368,-0.80788289,1.605855489
2208446.32,-10.02165259,-0.766382111,1.680894451
2208456.085,-9.984352384,-0.808704768,1.564761617
2208465.851,-9.789336063,-0.68328751,1.835624511
2208475.616,-9.792069658,-0.768754701,1.56226497
2208485.382,-9.791666473,-0.76794833,1.602583486
2208495.148,-9.866670078,-0.684109387,1.794530638
2208504.913,-9.790142433,-0.68490025,1.754987478
2208514.679,-9.906256348,-0.76635885,1.682057485
2208524.445,-10.02111636,-0.885309638,1.734518077
2208534.21,-9.947140874,-0.771204826,1.439758709
2208543.976,-9.792069658,-0.768754701,1.56226497
2208553.741,-10.09750692,-0.644244609,1.787769533
2208563.507,-9.98336458,-0.60672916,1.663541982
2208573.273,-10.02241461,-0.807906151,1.604692455
2208583.038,-10.09670055,-0.642631869,1.868406566
2208592.804,-9.944721763,-0.766366604,1.681669807
2208602.57,-9.828922333,-0.765536973,1.723151357
2208612.335,-9.982199375,-0.56439875,1.780062494
2208622.101,-9.982783994,-0.765567987,1.721600645
2208631.866,-9.983590364,-0.767180728,1.640963613
2208641.632,-9.867432098,-0.725633427,1.718328642
2208651.398,-9.675685609,-0.566755833,1.662208369
2208661.163,-10.05899715,-0.684148155,1.792592248
2208670.929,-10.02057609,-0.644229102,1.788544889
2208680.695,-10.09938979,-0.768010359,1.599482062
2208690.46,-9.905272576,-0.924391307,1.780434665
2208700.226,-9.982110674,-0.644221349,1.788932567
2208709.991,-10.0977327,-0.804696177,1.765191164
2208719.757,-10.09697068,-0.763172137,1.84139316
2208729.523,-9.828386096,-0.8844645,1.776774984
2208739.288,-10.05734006,-0.720833973,1.95830135
2208749.054,-9.905986214,-0.645818582,1.709070891
2208758.82,-10.02133811,-0.685753142,1.712342893
2208768.585,-9.94454033,-0.566003737,1.699813139
2208778.351,-10.06016236,-0.726478565,1.676071736
2208788.116,-9.982021974,-0.724043947,1.797802641
2208797.882,-9.715542013,-0.769545564,1.52272181
2208807.648,-10.09580548,-0.720841727,1.957913672
2208817.413,-10.01941088,-0.601898692,1.905065401
2208827.179,-10.02093492,-0.684946772,1.75266141
2208836.945,-9.945528134,-0.767979345,1.601032774
2208846.71,-9.982783994,-0.765567987,1.721600645
2208856.476,-10.02250331,-0.728083552,1.595822381
2208866.241,-10.06128321,-0.808720275,1.563986261
2208876.007,-9.790231134,-0.605077652,1.746117404
2208885.773,-9.983138796,-0.446277593,1.686120351
2208895.538,-9.942838889,-0.642600854,1.869957278
2208905.304,-9.943600909,-0.684124894,1.793755282
2208915.07,-9.982783994,-0.765567987,1.721600645
2208924.835,-10.09607561,-0.841381995,1.930900266
2208934.601,-9.827398293,-0.682488893,1.875555349
2208944.366,-10.06029541,-0.606744667,1.662766626
2208954.132,-9.712852768,-0.644167074,1.791646314
2208963.898,-9.752257604,-0.52605367,1.697316493
2208973.663,-9.982917045,-0.645834089,1.708295535
2208983.429,-9.867250665,-0.525270561,1.736471975
2208993.195,-9.867161964,-0.605093159,1.745342048
2209002.96,-9.942838889,-0.642600854,1.869957278
2209012.726,-9.946241772,-0.48940662,1.529669
2209022.491,-9.943689609,-0.604302296,1.784885209
2209032.257,-9.754765416,-0.451069294,1.446535321
2209042.023,-9.943419475,-0.483762028,1.811898614
2209051.788,-9.828293364,-0.604279035,1.786048243
2209061.554,-9.946556256,-0.570035589,1.498220558
2209071.32,-9.943600909,-0.684124894,1.793755282
2209081.085,-9.905941864,-0.685729881,1.713505928
2209090.851,-10.02268072,-0.568438355,1.578082234
2209100.616,-10.05863832,-0.643430485,1.828475727
2209110.382,-10.02102363,-0.605124173,1.743791336
2209120.148,-9.982469509,-0.684939018,1.753049088
2209129.913,-9.788977228,-0.64256984,1.87150799
2209139.679,-10.13745202,-0.767211742,1.6394129
2209149.445,-9.867073263,-0.684915758,1.754212122
2209159.21,-9.788932877,-0.682481139,1.875943027
2209168.976,-9.829055384,-0.645803075,1.709846247
2209178.741,-9.94373396,-0.564390997,1.780450172
2209188.507,-9.905538679,-0.684923511,1.753824444
2209198.273,-9.905268545,-0.564383243,1.78083785
2209208.038,-10.02093492,-0.684946772,1.75266141
2209217.804,-9.945927287,-0.408777651,1.561117443
2209227.57,-10.1744821,-0.604348817,1.78255914
2209237.335,-9.90490971,-0.523665573,1.816721329
2209247.101,-9.94449598,-0.605915036,1.704248176
2209256.866,-9.75113675,-0.443811961,1.809401968
2209266.632,-9.789557814,-0.483731013,1.813449327
2209276.398,-9.867206314,-0.56518186,1.740907012
2209286.163,-9.943689609,-0.604302296,1.784885209
2209295.929,-10.09804316,-0.525317082,1.734145907
2209305.695,-10.02214448,-0.687365883,1.631705861
2209315.46,-10.02174129,-0.686559512,1.672024377
2209325.226,-9.944270196,-0.445463469,1.726826545
2209334.991,-9.827890179,-0.603472665,1.826366759
2209344.757,-9.868597303,-0.767963837,1.60180813
2209354.523,-9.945798268,-0.888519613,1.574019368
2209364.288,-9.982872694,-0.685745389,1.712730572
2209374.054,-9.907151419,-0.688148992,1.592550379
2209383.82,-9.944229878,-0.845382832,1.730858397
2209393.585,-9.867387748,-0.765544726,1.722763679
2209403.351,-9.943915393,-0.764753863,1.762306839
2209413.116,-9.831744629,-0.771181565,1.440921743
2209422.882,-9.83111566,-0.609923627,1.503818629
2209432.648,-10.09799881,-0.565228381,1.738580943
2209442.413,-9.982380808,-0.764761617,1.761919161
2209452.179,-9.94530235,-0.607527777,1.623611143
2209461.945,-9.943600909,-0.684124894,1.793755282
2209471.71,-10.09903096,-0.727292689,1.635365542
2209481.476,-9.943822661,-0.484568398,1.771580098
2209491.241,-10.13682709,-0.965961868,1.701906601
2209501.007,-9.907058687,-0.407963527,1.601823638
2209510.773,-9.907062719,-0.767971591,1.601420452
2209520.538,-9.982917045,-0.645834089,1.708295535
2209530.304,-9.868238469,-0.727246168,1.63769161
2209540.07,-9.790589968,-0.645795322,1.710233925
2209549.835,-9.788485342,-0.721586068,1.92069658
2209559.601,-9.790319834,-0.525255053,1.737247331
2209569.366,-9.829458569,-0.646609445,1.669527731
2209579.132,-9.75346716,-0.528472781,1.576360944
2209588.898,-9.79229141,-0.569198204,1.540089786
2209598.663,-9.944362929,-0.725648934,1.717553286
2209608.429,-9.945213649,-0.687350376,1.632481217
2209618.195,-10.09835764,-0.605946051,1.702697464
2209627.96,-10.13686741,-0.566042505,1.697874749
2209637.726,-9.830801175,-0.529294659,1.535267071
2209647.491,-10.09867213,-0.68657502,1.671249021
2209657.257,-10.05975917,-0.725672195,1.716390252
2209667.023,-9.983993549,-0.767987098,1.600645096
2209676.788,-10.06132756,-0.768808976,1.559551224
2209686.554,-9.942838889,-0.642600854,1.869957278
2209696.32,-10.06092438,-0.768002605,1.59986974
2209706.085,-9.906345049,-0.686536252,1.673187411
2209715.851,-10.01976972,-0.642616362,1.869181922
2209725.616,-9.903881588,-0.721609329,1.919533546
2209735.382,-10.09826894,-0.685768649,1.711567537
2209745.148,-10.0998333,-0.368897366,1.555131694
2209754.913,-9.983993549,-0.767987098,1.600645096
2209764.679,-9.867968334,-0.6067059,1.664705016
2209774.445,-9.944137145,-0.565197367,1.740131655
2209784.21,-10.02070914,-0.524495204,1.775239779
2209793.976,-9.751451234,-0.524440929,1.777953525
2209803.741,-10.01968102,-0.72243896,1.878051995
2209813.507,-9.906074915,-0.565995984,1.700200817
2209823.273,-9.944362929,-0.725648934,1.717553286
2209833.038,-9.982066324,-0.684132648,1.793367604
2209842.804,-10.0607873,-0.527728439,1.613578036
2209852.57,-9.980453583,-0.680907167,1.954641669
2209862.335,-9.867161964,-0.605093159,1.745342048
2209872.101,-9.828204663,-0.684101634,1.794918316
2209881.866,-9.943645259,-0.644213595,1.789320245
2209891.632,-10.06154932,-0.569252479,1.53737604
2209901.398,-9.869403674,-0.769576578,1.521171098
2209911.163,-10.09880518,-0.566841122,1.657943911
2209920.929,-9.90567173,-0.565189613,1.740519334
2209930.695,-9.982021974,-0.724043947,1.797802641
2209940.46,-9.944899165,-0.606721407,1.66392966
2209950.226,-9.983856466,-0.527712932,1.614353392
2209959.991,-10.10006311,-0.889356997,1.53215014
2209969.757,-9.829458569,-0.646609445,1.669527731
2209979.523,-10.09876486,-0.966760485,1.661975762
2209989.288,-10.02245896,-0.767994852,1.600257418
2209999.054,-9.905538679,-0.684923511,1.753824444
2210008.82,-9.906389399,-0.646624953,1.668752375
2210018.585,-9.791174587,-0.846964558,1.651772076
2210028.351,-9.983949199,-0.807898397,1.605080133
2210038.116,-9.868105417,-0.846980066,1.65099672
2210047.882,-10.13785521,-0.768018112,1.599094384
2210057.648,-10.0967449,-0.602720569,1.863971529
2210067.413,-10.02120506,-0.80548704,1.725648004
2210077.179,-9.867879634,-0.686528498,1.673575089
2210086.945,-9.790098083,-0.72481155,1.759422515
2210096.71,-9.753604243,-0.768746947,1.562652648
2210106.476,-9.868686004,-0.688141239,1.592938057
2210116.241,-10.09804719,-0.885325146,1.733742721
2210126.007,-9.943600909,-0.684124894,1.793755282
2210135.773,-9.984308033,-0.848616067,1.569196654
2210145.538,-9.944407279,-0.685737635,1.71311825
2210155.304,-9.790501268,-0.72561792,1.719103999
2210165.07,-10.02012855,-0.683334031,1.833298442
2210174.835,-10.01936653,-0.641809991,1.909500438
2210184.601,-9.906659533,-0.767165221,1.641738969
2210194.366,-10.0606986,-0.607551038,1.622448109
2210204.132,-10.0978214,-0.724873578,1.75632109
2210213.898,-9.788932877,-0.682481139,1.875943027
2210223.663,-9.752842223,-0.727222907,1.638854644
2210233.429,-9.867835283,-0.726439797,1.678010126
2210243.195,-9.865460523,-0.681690276,1.915486187
2210252.96,-10.02102766,-0.965132237,1.743388151
2210262.726,-9.906885317,-0.927616788,1.6191606
2210272.491,-10.06088003,-0.807913904,1.604304777
2210282.257,-9.713929272,-0.766320082,1.683995875
2210292.023,-10.09813589,-0.805502547,1.724872648
2210301.788,-9.983501663,-0.847003326,1.649833686
2210311.554,-9.753156707,-0.807851876,1.607406201
2210321.32,-10.02066882,-0.924414567,1.77927163
2210331.085,-9.943649291,-1.004221659,1.78891706
2210340.851,-9.942080901,-0.961084878,1.945756088
2210350.616,-10.05881975,-0.843793352,1.810332395
2210360.382,-9.905002442,-0.803851039,1.807448071
2210370.148,-10.21151621,-0.801493956,1.925302195
2210379.913,-10.09715212,-0.963535003,1.823249827
2210389.679,-10.02268475,-0.928446419,1.577679049
2210399.445,-9.866492677,-0.843754584,1.812270785
2210409.21,-9.981171253,-0.762342506,1.88287471
2210418.976,-9.831297093,-0.810286494,1.485675296
2210428.741,-9.943334807,-0.92359269,1.820365503
2210438.507,-9.715767796,-0.929997131,1.500143441
2210448.273,-10.02196708,-0.84701108,1.649446008
2210458.038,-9.943826692,-0.844576462,1.771176913
2210467.804,-9.752620471,-0.926779403,1.661029828
2210477.57,-9.790368217,-0.845351818,1.732409109
2210487.335,-9.982606592,-0.925213184,1.739340792
2210497.101,-9.905228226,-0.964302606,1.784869701
2210506.866,-9.637312926,-0.846933544,1.653322788
2210516.632,-9.715138828,-0.768739193,1.563040326
2210526.398,-9.983949199,-0.807898397,1.605080133
2210536.163,-9.867702232,-0.846173695,1.691315237
2210545.929,-9.945753917,-0.928430912,1.578454405
2210555.695,-9.984219333,-0.928438665,1.578066727
2210565.46,-9.906929667,-0.887705489,1.614725563
2210575.226,-9.983501663,-0.847003326,1.649833686
2210584.991,-9.944633063,-0.846189202,1.69053988
2210594.757,-10.02196708,-0.84701108,1.649446008
2210604.523,-9.903345351,-0.840536857,1.973157172
2210614.288,-9.904510556,-0.882867267,1.85663666
2210624.054,-9.790368217,-0.845351818,1.732409109
2210633.82,-10.09643445,-0.882099664,1.895016786
2210643.585,-9.943826692,-0.844576462,1.771176913
2210653.351,-9.867254697,-0.885278624,1.73606879
2210663.116,-9.981082552,-0.842165104,1.891744784
2210672.882,-9.791174587,-0.846964558,1.651772076
2210682.648,-9.828700581,-0.965093469,1.745326541
2210692.413,-9.790323866,-0.885263117,1.736844146
2210702.179,-9.828789281,-0.885270871,1.736456468
2210711.945,-9.942391353,-0.681705783,1.914710831
2210721.71,-9.867165996,-0.965101223,1.744938863
2210731.476,-9.827757127,-0.723206563,1.839671869
2210741.241,-9.827938561,-0.923569429,1.821528537
2210751.007,-10.02093492,-0.684946772,1.75266141
2210760.773,-9.866851512,-0.884472254,1.776387306
2210770.538,-9.943693641,-0.96431036,1.784482023
2210780.304,-9.944274228,-0.805471533,1.72642336
2210790.07,-9.944141177,-0.925205431,1.73972847
2210799.835,-9.829192467,-0.886077241,1.696137951
2210809.601,-9.867569181,-0.965907593,1.704620347
2210819.366,-9.867702232,-0.846173695,1.691315237
2210829.132,-9.867210346,-0.925189923,1.740503826
2210838.898,-9.944500012,-0.9659231,1.703844991
2210848.663,-9.944229878,-0.845382832,1.730858397
2210858.429,-10.09688198,-0.842994735,1.850263233
2210868.195,-9.828789281,-0.885270871,1.736456468
2210877.96,-9.790368217,-0.845351818,1.732409109
2210887.726,-9.865775007,-0.762319245,1.884037744
2210897.491,-10.09791414,-1.005059043,1.747047832
2210907.257,-10.01887465,-0.720826219,1.958689028
2210917.023,-9.981888922,-0.843777845,1.811107751
2210926.788,-9.78978763,-1.004190645,1.790467772
2210936.554,-9.867343397,-0.805456026,1.727198716
2210946.32,-10.01945927,-0.921995456,1.900227179
2210956.085,-10.02062447,-0.964325867,1.783706667
2210965.851,-9.906167647,-0.846181449,1.690927558
2210975.616,-10.02313228,-0.88934149,1.532925496
2210985.382,-10.05657804,-0.679309933,2.034503346
2210995.148,-10.13583928,-0.763986261,1.800686965
2211004.913,-10.02044304,-0.763963,1.80185
2211014.679,-9.905135493,-0.684117141,1.79414296
2211024.445,-9.943242074,-0.643407225,1.829638762
2211034.21,-9.867476449,-0.685722128,1.713893606
2211043.976,-9.752797872,-0.767134206,1.643289681
2211053.741,-10.02205578,-0.767188481,1.640575934
2211063.507,-10.02084622,-0.76476937,1.761531483
2211073.273,-9.865908058,-0.642585347,1.870732634
2211083.038,-10.02039869,-0.803874299,1.806285036
2211092.804,-9.751318183,-0.644174827,1.791258636
2211102.57,-9.866311243,-0.643391718,1.830414118
2211112.335,-9.867520799,-0.645810829,1.709458569
2211122.101,-9.829369868,-0.726432044,1.678397804
2211131.866,-9.830220589,-0.688133485,1.593325735
2211141.632,-9.751632667,-0.724803796,1.759810193
2211151.398,-9.906615183,-0.80707652,1.646174005
2211161.163,-10.09791011,-0.64505098,1.747451017
2211170.929,-9.944048444,-0.645019965,1.749001729
2211180.695,-9.868012685,-0.5667946,1.660269979
2211190.46,-9.8676982,-0.486165632,1.691718422
2211200.226,-9.945032216,-0.486987509,1.650624549
2211209.991,-9.790589968,-0.645795322,1.710233925
2211219.757,-9.944943515,-0.566810108,1.659494623
2211229.523,-9.86913354,-0.64903631,1.548184504
2211239.288,-9.945124949,-0.767172974,1.641351291
2211249.054,-9.790186783,-0.644988951,1.750552441
2211258.82,-10.02205578,-0.767188481,1.640575934
2211268.585,-9.867117614,-0.645004458,1.749777085
2211278.351,-9.869000488,-0.768770208,1.561489614
2211288.116,-10.09979298,-0.768816729,1.559163546
2211297.882,-9.868194118,-0.767157467,1.642126647
2211307.648,-10.0227291,-0.88853512,1.573244012
2211317.413,-10.09898661,-0.767203988,1.639800578
2211327.179,-10.17502237,-0.845429353,1.728532328
2211336.945,-10.17793337,-0.771251347,1.437432641
2211346.71,-9.906659533,-0.767165221,1.641738969
2211356.476,-10.06052119,-0.767196235,1.640188256
2211366.241,-9.945080598,-0.807084273,1.645786327
2211376.007,-9.905986214,-0.645818582,1.709070891
2211385.773,-10.0227291,-0.88853512,1.573244012
2211395.538,-10.02053174,-0.684140401,1.792979926
2211405.304,-9.94449598,-0.605915036,1.704248176
2211415.07,-9.984574136,-0.609148271,1.542586433
2211424.835,-9.869492374,-0.68975398,1.512301024
2211434.601,-9.867968334,-0.6067059,1.664705016
2211444.366,-9.984666868,-0.889333737,1.533313174
2211454.132,-9.867879634,-0.686528498,1.673575089
2211463.898,-10.02174129,-0.686559512,1.672024377
2211473.663,-10.0227291,-0.88853512,1.573244012
2211483.429,-10.02272507,-0.528527056,1.573647197
2211493.195,-10.06052119,-0.767196235,1.640188256
2211502.96,-9.791126205,-0.526867794,1.656610298
2211512.726,-9.907417521,-0.448681197,1.565940158
2211522.491,-9.944137145,-0.565197367,1.740131655
2211532.257,-9.830442341,-0.488576989,1.571150551
2211542.023,-9.983767765,-0.607535531,1.623223465
2211551.788,-9.867117614,-0.645004458,1.749777085
2211561.554,-9.906925636,-0.527697425,1.615128748
2211571.32,-9.98336458,-0.60672916,1.663541982
2211581.085,-9.94449598,-0.605915036,1.704248176
2211590.851,-9.866714429,-0.644198088,1.790095601
2211600.616,-9.906119265,-0.526084684,1.69576578
2211610.382,-9.94530235,-0.607527777,1.623611143
2211620.148,-9.908272274,-0.770390702,1.480464904
2211629.913,-10.05975917,-0.725672195,1.716390252
2211639.679,-9.753108325,-0.487755112,1.612244423
2211649.445,-9.715138828,-0.768739193,1.563040326
2211659.21,-9.866444295,-0.52365782,1.817109007
2211668.976,-9.905538679,-0.684923511,1.753824444
2211678.741,-10.05832384,-0.562801517,1.85992417
2211688.507,-10.05980352,-0.685760896,1.711955215
2211698.273,-10.09898661,-0.767203988,1.639800578
2211708.038,-9.906659533,-0.767165221,1.641738969
2211717.804,-9.753063975,-0.527666411,1.61667946
2211727.57,-9.867028913,-0.724827057,1.758647159
2211737.335,-9.791081854,-0.566779093,1.661045335
2211747.101,-9.984396734,-0.768793468,1.56032658
2211756.866,-10.09750692,-0.644244609,1.787769533
2211766.632,-9.983231529,-0.726463058,1.676847092
2211776.398,-9.98175184,-0.603503679,1.824816047
2211786.163,-9.906792584,-0.647431323,1.628433858
2211795.929,-9.982872694,-0.685745389,1.712730572
2211805.695,-9.905135493,-0.684117141,1.79414296
2211815.46,-9.945975669,-0.728874416,1.556279221
2211825.226,-9.753063975,-0.527666411,1.61667946
2211834.991,-9.90567173,-0.565189613,1.740519334
2211844.757,-9.90800214,-0.649850434,1.507478309
2211854.523,-10.0201729,-0.643422732,1.828863406
2211864.288,-10.09799881,-0.565228381,1.738580943
2211874.054,-9.944092795,-0.605108666,1.744566692
2211883.82,-9.790589968,-0.645795322,1.710233925
2211893.585,-9.982961395,-0.60592279,1.703860498
2211903.351,-10.1744821,-0.604348817,1.78255914
2211913.116,-10.02178565,-0.646648213,1.66758934
2211922.882,-9.905268545,-0.564383243,1.78083785
2211932.648,-9.868238469,-0.727246168,1.63769161
2211942.413,-9.906030565,-0.605907283,1.704635854
2211952.179,-10.06213394,-0.770421716,1.478914191
2211961.945,-9.945749886,-0.568422848,1.57885759
2211971.71,-10.29194265,-0.928500694,1.574965303
2211981.476,-10.02223318,-0.607543284,1.622835787
2211991.241,-9.943242074,-0.643407225,1.829638762
2212001.007,-9.906792584,-0.647431323,1.628433858
2212010.773,-9.866625728,-0.724020687,1.798965675
2212020.538,-9.828652199,-0.644996705,1.750164763
2212030.304,-9.944407279,-0.685737635,1.71311825
2212040.07,-9.982872694,-0.685745389,1.712730572
2212049.835,-9.904913742,-0.883673637,1.816318144
2212059.601,-10.02196708,-0.84701108,1.649446008
2212069.366,-9.983590364,-0.767180728,1.640963613
2212079.132,-9.907554604,-0.688955363,1.552231862
2212088.898,-9.906615183,-0.80707652,1.646174005
2212098.663,-10.25123553,-0.764009521,1.799523931
2212108.429,-10.17493367,-0.925251952,1.737402402
2212118.195,-10.21514488,-0.808751289,1.562435549
2212127.96,-9.867028913,-0.724827057,1.758647159
2212137.726,-9.944274228,-0.805471533,1.72642336
2212147.491,-10.13830275,-0.728913183,1.554340831
2212157.257,-9.985021671,-0.570043342,1.49783288
2212167.023,-9.791081854,-0.566779093,1.661045335
2212176.788,-9.867968334,-0.6067059,1.664705016
2212186.554,-9.752975274,-0.607489009,1.625549534
2212196.32,-10.06065425,-0.647462337,1.626883146
2212206.085,-9.905357245,-0.484560644,1.771967776
2212215.851,-10.17658673,-0.52855807,1.572096485
2212225.616,-9.789827948,-0.604271282,1.786435921
2212235.382,-9.945032216,-0.486987509,1.650624549
2212245.148,-9.943689609,-0.604302296,1.784885209
2212254.913,-9.907732006,-0.529310166,1.534491715
2212264.679,-9.905357245,-0.484560644,1.771967776
2212274.445,-9.94377831,-0.524479697,1.776015135
2212284.21,-9.714957394,-0.568376327,1.581183659
2212293.976,-10.05921891,-0.484591659,1.770417064
2212303.741,-10.02218883,-0.647454584,1.627270824
2212313.507,-9.982288076,-0.484576152,1.77119242
2212323.273,-10.13601669,-0.604341064,1.782946818
2212333.038,-10.05814643,-0.722446714,1.877664317
2212342.804,-10.02196305,-0.487003016,1.649849193
2212352.57,-10.0200842,-0.72324533,1.837733479
2212362.335,-10.05899715,-0.684148155,1.792592248
2212372.101,-10.09871648,-0.64666372,1.666813984
2212381.866,-9.983142828,-0.806285657,1.685717166
2212391.632,-9.943689609,-0.604302296,1.784885209
2212401.398,-10.09938979,-0.768010359,1.599482062
2212411.163,-10.06052119,-0.767196235,1.640188256
2212420.929,-9.904776659,-0.643399471,1.83002644
2212430.695,-10.09719244,-0.56361564,1.819217976
2212440.46,-9.905941864,-0.685729881,1.713505928
2212450.226,-9.906163616,-0.486173385,1.691330744
2212459.991,-10.02214448,-0.687365883,1.631705861
2212469.757,-10.02263637,-0.608349655,1.582517271
2212479.523,-9.90576043,-0.485367015,1.73164926
2212489.288,-9.904732308,-0.68331077,1.834461476
2212499.054,-9.867831252,-0.366431734,1.678413311
2212508.82,-9.982691261,-0.485382522,1.730873904
2212518.585,-9.905224194,-0.604294542,1.785272887
2212528.351,-9.90728447,-0.568415095,1.579245268
2212538.116,-10.09719244,-0.56361564,1.819217976
2212547.882,-9.905627379,-0.605100913,1.74495437
2212557.648,-9.982513859,-0.645027719,1.748614051
2212567.413,-10.02075752,-0.844591969,1.770401557
2212577.179,-9.8288296,-0.485351508,1.732424616
2212586.945,-10.09759562,-0.564422011,1.77889946
2212596.71,-9.906969986,-0.487786126,1.610693711
2212606.476,-9.86922224,-0.569213711,1.53931443
2212616.241,-9.790589968,-0.645795322,1.710233925
2212626.007,-9.98255821,-0.60511642,1.744179014
2212635.773,-9.906566801,-0.486979755,1.651012227
2212645.538,-9.906300699,-0.726447551,1.677622448
2212655.304,-9.79072302,-0.526061424,1.696928815
2212665.07,-9.905224194,-0.604294542,1.785272887
2212674.835,-10.06101308,-0.688180007,1.590999667
2212684.601,-9.907598955,-0.649044063,1.547796826
2212694.366,-10.05940034,-0.684954525,1.752273732
2212704.132,-9.983856466,-0.527712932,1.614353392
2212713.898,-10.02124941,-0.765575741,1.721212967
2212723.663,-10.02218883,-0.647454584,1.627270824
2212733.429,-9.943689609,-0.604302296,1.784885209
2212743.195,-9.944584681,-0.526092438,1.695378102
2212752.96,-9.944766114,-0.726455305,1.67723477
2212762.726,-9.906611151,-0.447068456,1.646577191
2212772.491,-9.90643375,-0.606713653,1.664317338
2212782.257,-9.983634714,-0.727269428,1.636528576
2212792.023,-9.944721763,-0.766366604,1.681669807
2212801.788,-9.983231529,-0.726463058,1.676847092
2212811.554,-9.792876028,-0.770367441,1.481627938
2212821.32,-9.907421553,-0.808689261,1.565536973
2212831.085,-9.790678669,-0.565972723,1.701363851
2212840.851,-9.945886969,-0.808697014,1.565149295
2212850.616,-10.05854962,-0.723253084,1.837345801
2212860.382,-9.94449598,-0.605915036,1.704248176
2212870.148,-9.943242074,-0.643407225,1.829638762
2212879.913,-9.866311243,-0.643391718,1.830414118
2212889.679,-9.714554209,-0.567569957,1.621502175
2212899.445,-9.790545618,-0.685706621,1.714668962
2212909.21,-9.943645259,-0.644213595,1.789320245
2212918.976,-10.02048739,-0.724051701,1.797414963
2212928.741,-9.907421553,-0.808689261,1.565536973
2212938.507,-9.867657882,-0.886084995,1.695750273
2212948.273,-9.829281167,-0.806254642,1.687267878
2212958.038,-10.09804719,-0.885325146,1.733742721
2212967.804,-9.945124949,-0.767172974,1.641351291
2212977.57,-10.21335473,-0.965171005,1.741449761
2212987.335,-9.904643608,-0.763133369,1.84333155
2212997.101,-9.942347003,-0.721617083,1.919145868
2213006.866,-9.905361277,-0.844568708,1.771564591
2213016.632,-9.983949199,-0.807898397,1.605080133
2213026.398,-10.21348778,-0.845437107,1.72814465
2213036.163,-10.05953742,-0.925228691,1.738565436
2213045.929,-9.86837152,-0.60751227,1.624386499
2213055.695,-9.982828344,-0.725656688,1.717165608
2213065.46,-9.906256348,-0.76635885,1.682057485
2213075.226,-9.830938258,-0.769568824,1.521558776
2213084.991,-10.09862777,-0.726486319,1.675684058
2213094.757,-9.905627379,-0.605100913,1.74495437
2213104.523,-9.867387748,-0.765544726,1.722763679
2213114.288,-9.982695293,-0.845390586,1.730470719
2213124.054,-9.752886573,-0.687311608,1.634419607
2213133.82,-9.944588712,-0.886100502,1.694974917
2213143.585,-9.829325518,-0.766343343,1.682832841
2213153.351,-10.05859397,-0.683341785,1.832910764
2213163.116,-9.867387748,-0.765544726,1.722763679
2213172.882,-9.906792584,-0.647431323,1.628433858
2213182.648,-9.868194118,-0.767157467,1.642126647
2213192.413,-9.907869089,-0.769584332,1.52078342
2213202.179,-9.943153373,-0.723229823,1.838508835
2213211.945,-10.02012855,-0.683334031,1.833298442
2213221.71,-9.868194118,-0.767157467,1.642126647
2213231.476,-9.712135098,-0.562731735,1.863413273
2213241.241,-9.982380808,-0.764761617,1.761919161
2213251.007,-9.711957697,-0.722376932,1.88115342
2213260.773,-9.905224194,-0.604294542,1.785272887
2213270.538,-9.947140874,-0.771204826,1.439758709
2213280.304,-9.675375156,-0.846134927,1.693253627
2213290.07,-10.09683763,-0.882906035,1.85469827
2213299.835,-9.713078551,-0.804618641,1.769067944
2213309.601,-10.01905608,-0.921189086,1.940545696
2213319.366,-9.905631411,-0.965108976,1.744551185
2213329.132,-9.983187179,-0.766374357,1.681282129
2213338.898,-10.01860855,-0.960294015,1.985299249
2213348.663,-10.02147519,-0.926027308,1.698634598
2213358.429,-10.09791414,-1.005059043,1.747047832
2213368.195,-10.05779163,-1.041737108,1.913144612
2213377.96,-9.787860405,-0.920336194,1.98319028
2213387.726,-9.558813705,-0.803781257,1.810937173
2213397.491,-9.982114706,-1.004229412,1.788529382
2213407.257,-9.904284773,-0.722415699,1.87921503
2213417.023,-10.05832787,-0.92280958,1.859520985
2213426.788,-10.01954797,-0.842172858,1.891357106
2213436.554,-9.905764462,-0.845375079,1.731246075
2213446.32,-10.17336528,-0.882115171,1.89424143
2213456.085,-9.864299349,-0.99936793,2.031603514
2213465.851,-9.942484086,-0.961891249,1.905437572
2213475.616,-10.02053577,-1.044148465,1.792576741
2213485.382,-9.865508905,-1.001787041,1.910647965
2213495.148,-10.02017694,-1.003430796,1.82846022
2213504.913,-10.01847549,-1.080027913,1.998604359
2213514.679,-9.78974328,-1.044101944,1.794902809
2213524.445,-9.863940515,-0.95865026,2.067486993
2213534.21,-9.787590271,-0.799795926,2.010203686
2213543.976,-9.751455266,-0.884448993,1.77755034
2213553.741,-10.02022129,-0.963519496,1.824025184
2213563.507,-9.86748048,-1.045730192,1.71349042
2213573.273,-9.750023959,-1.081586379,1.920681073
2213583.038,-9.90630473,-1.086455615,1.677219263
2213592.804,-9.86591209,-1.002593411,1.870329449
2213602.57,-10.09540633,-1.08004342,1.997829003
2213612.335,-9.78906996,-0.922755305,1.862234731
2213622.101,-9.790102114,-1.084819613,1.75901933
2213631.866,-9.902764765,-0.999375683,2.031215836
2213641.632,-9.752172935,-0.965884332,1.705783381
2213651.398,-9.788936909,-1.042489203,1.875539842
2213661.163,-9.863311546,-0.797392322,2.130383879
2213670.929,-9.941722066,-0.920367209,1.981639568
2213680.695,-9.865375854,-1.121520938,1.923953075
2213690.46,-9.790279516,-0.925174416,1.741279182
2213700.226,-9.827446675,-1.002585657,1.870717127
2213709.991,-9.941589015,-1.040101106,1.994944678
2213719.757,-9.904244454,-1.122335062,1.883246881
2213729.523,-9.903482434,-1.080811022,1.959448877
2213739.288,-9.903571135,-1.000988424,1.950578803
2213749.054,-9.673089096,-0.721562808,1.921859614
2213758.82,-10.09710777,-1.003446303,1.827684864
2213768.585,-9.942169601,-0.88126228,1.936886015
2213778.351,-9.78898126,-1.002577904,1.871104805
2213788.116,-9.941544664,-1.080012406,1.999379715
2213797.882,-9.866537027,-0.803843285,1.807835749
2213807.648,-9.942887271,-0.962697619,1.865119056
2213817.413,-10.09634575,-0.961922263,1.90388686
2213827.179,-9.904869391,-0.923584936,1.820753181
2213836.945,-9.903615485,-0.961077125,1.946143767
2213846.71,-9.904643608,-0.763133369,1.84333155
2213856.476,-9.981618788,-0.723237577,1.838121157
2213866.241,-9.86748048,-1.045730192,1.71349042
2213876.007,-9.905631411,-0.965108976,1.744551185
2213885.773,-9.944229878,-0.845382832,1.730858397
2213895.538,-10.13709722,-1.086502136,1.674893195
2213905.304,-9.790456917,-0.765529219,1.723539035
2213915.07,-9.904377505,-1.002601165,1.869941771
2213924.835,-9.788711126,-0.882037636,1.898118211
2213934.601,-10.01977375,-1.002624425,1.868778737
2213944.366,-9.828700581,-0.965093469,1.745326541
2213954.132,-9.866448326,-0.883665884,1.816705822
2213963.898,-10.01941492,-0.961906756,1.904662216
2213973.663,-9.86586774,-1.04250471,1.874764486
2213983.429,-9.86586774,-1.04250471,1.874764486
2213993.195,-9.829192467,-0.886077241,1.696137951
2214002.96,-9.943334807,-0.92359269,1.820365503
2214012.726,-9.905990246,-1.005826646,1.708667706
2214022.491,-9.905272576,-0.924391307,1.780434665
2214032.257,-10.0575215,-0.92119684,1.940158018
2214042.023,-10.05908989,-0.96433362,1.783318989
2214051.788,-10.05904554,-1.004244919,1.787754026
2214061.554,-10.02116071,-0.845398339,1.730083041
2214071.32,-9.942576818,-1.242076714,1.896164313
2214081.085,-10.09652718,-1.162285129,1.885743528
2214090.851,-9.942351035,-1.081625146,1.918742683
2214100.616,-9.866492677,-0.843754584,1.812270785
2214110.382,-9.867702232,-0.846173695,1.691315237
2214120.148,-10.05904554,-1.004244919,1.787754026
2214129.913,-9.943246106,-1.003415288,1.829235576
2214139.679,-10.02138649,-1.005849907,1.707504672
2214149.445,-10.02192273,-0.886922379,1.653881045
2214159.21,-10.01945927,-0.921995456,1.900227179
2214168.976,-9.944318578,-0.765560234,1.721988323
2214178.741,-9.942842921,-1.002608918,1.869554093
2214188.507,-9.868194118,-0.767157467,1.642126647
2214198.273,-9.942572787,-0.88206865,1.896567499
2214208.038,-9.904958092,-0.843762338,1.811883107
2214217.804,-9.791980957,-0.848577299,1.571135044
2214227.57,-9.826547572,-0.720787452,1.960627418
2214237.335,-9.943153373,-0.723229823,1.838508835
2214247.101,-10.05859397,-0.683341785,1.832910764
2214256.866,-10.06011801,-0.766389865,1.680506773
2214266.632,-9.944633063,-0.846189202,1.69053988
2214276.398,-9.828204663,-0.684101634,1.794918316
2214286.163,-9.903075217,-0.719996588,2.000170578
2214295.929,-9.982695293,-0.845390586,1.730470719
2214305.695,-9.868597303,-0.767963837,1.60180813
2214315.46,-9.791263288,-0.76714196,1.642902003
2214325.226,-9.714735642,-0.767932823,1.603358843
2214334.991,-10.02107201,-0.925220938,1.738953114
2214344.757,-10.09898661,-0.767203988,1.639800578
2214354.523,-9.944318578,-0.765560234,1.721988323
2214364.288,-9.8676095,-0.56598823,1.700588495
2214374.054,-10.0219187,-0.526914315,1.65428423
2214383.82,-9.905179844,-0.644205842,1.789707923
2214393.585,-9.906792584,-0.647431323,1.628433858
2214403.351,-9.905135493,-0.684117141,1.79414296
2214413.116,-10.09750692,-0.644244609,1.787769533
2214422.882,-9.713300303,-0.605062145,1.746892761
2214432.648,-9.984396734,-0.768793468,1.56032658
2214442.413,-10.02012855,-0.683334031,1.833298442
2214452.179,-10.05998496,-0.886123762,1.693811883
2214461.945,-9.904776659,-0.643399471,1.83002644
2214471.71,-9.906030565,-0.605907283,1.704635854
2214481.476,-9.869806859,-0.770382948,1.480852582
2214491.241,-9.868552953,-0.807875137,1.606243167
2214501.007,-9.86837152,-0.60751227,1.624386499
2214510.773,-10.05980352,-0.685760896,1.711955215
2214520.538,-9.866670078,-0.684109387,1.794530638
