Timestamp,Accelerometer X,Accelerometer Y,Accelerometer Z
mSecs,m/(sec^2),m/(sec^2),m/(sec^2)
98934.60083,-10.33506083,-0.377813961,1.109301947
98944.36646,-10.10314748,-0.29552573,1.22371349
98954.13208,-9.872846875,-0.216462981,1.176850969
98963.89771,-9.989049491,-0.218098982,1.095050902
98973.66333,-9.989408326,-0.258816652,1.059167423
98983.42896,-10.02738186,-0.337840633,1.107968334
98993.19458,-10.02814388,-0.379364673,1.031766339
99002.96021,-9.949689005,-0.296301086,1.184945686
99012.72583,-9.798423856,-0.141463097,0.926845154
99022.49146,-9.951390446,-0.219703969,1.014801548
99032.25708,-10.02881316,-0.140703248,0.964837602
99042.02271,-9.951837982,-0.18059904,0.970047995
99051.78833,-9.91207431,-0.257994774,1.100261295
99061.55396,-9.872399339,-0.25556791,1.221604522
99071.31958,-10.14322564,-0.298758965,1.062051747
99081.08521,-9.95009219,-0.297107457,1.14462717
99090.85083,-9.990259046,-0.220518093,0.974095353
99100.61646,-9.952152466,-0.261228009,0.938599552
99110.38208,-9.873608895,-0.257987021,1.100648973
99120.14771,-9.950362324,-0.417647725,1.117613764
99129.91333,-9.872891225,-0.176551681,1.172415932
99139.67896,-9.988331821,-0.136663643,1.166817861
99149.44458,-9.873161359,-0.297091949,1.145402526
99159.21021,-9.911941259,-0.377728672,1.113566405
99168.97583,-9.79793197,-0.220479325,0.976033743
99178.74146,-9.950047839,-0.337018756,1.149062207
99188.50708,-9.797573135,-0.179761656,1.011917223
99198.27271,-9.875177285,-0.301123801,0.943809945
99208.03833,-9.83514348,-0.257979267,1.101036651
99217.80396,-9.797036899,-0.298689183,1.06554085
99227.56958,-10.0651296,-0.256413048,1.179347615
99237.33521,-9.989363975,-0.298727951,1.063602459
99247.10083,-9.989363975,-0.298727951,1.063602459
99256.86646,-9.796855466,-0.098326316,1.083684182
99266.63208,-9.834740294,-0.257172897,1.141355167
99276.39771,-10.14237492,-0.337057524,1.147123817
99286.16333,-10.06593597,-0.258025788,1.098710583
99295.92896,-9.948076264,-0.293075605,1.346219751
99305.69458,-10.18079598,-0.376976576,1.151171175
99315.46021,-10.10310313,-0.335437029,1.228148527
99325.22583,-9.719880285,-0.138222109,1.088894575
99334.99146,-10.10346196,-0.376154699,1.192265048
99344.75708,-9.987839935,-0.215679871,1.216006451
99354.52271,-9.873475844,-0.377720918,1.113954083
99364.28833,-10.10355067,-0.296332101,1.183394974
99374.05396,-9.797528785,-0.219672955,1.01635226
99383.81958,-9.911852558,-0.45755127,1.122436479
99393.58521,-10.02661984,-0.296316593,1.18417033
99403.35083,-9.91055027,-0.174946694,1.252665287
99413.11646,-9.873161359,-0.297091949,1.145402526
99422.88208,-9.720327821,-0.09911718,1.044141022
99432.64771,-9.873161359,-0.297091949,1.145402526
99442.41333,-10.02787374,-0.258824405,1.058779745
99452.17896,-9.798468207,-0.101551798,0.922410117
99461.94458,-9.949733355,-0.256389787,1.18051065
99471.71021,-9.911179239,-0.336204632,1.189768401
99481.47583,-9.681995456,0.020624472,1.031223589
99491.24146,-9.87329441,-0.177358052,1.132097416
99501.00708,-9.948926985,-0.254777046,1.261147682
99510.77271,-10.02742621,-0.297929334,1.103533298
99520.53833,-9.87320571,-0.25718065,1.140967489
99530.30396,-9.912743597,-0.019333349,1.033332558
99540.06958,-9.795827344,-0.296270072,1.186496398
99549.83521,-9.873028308,-0.416825847,1.158707636
99559.60083,-10.02827693,-0.259630775,1.018461228
99569.36646,-9.8359942,-0.219680708,1.015964582
99579.13208,-9.834695944,-0.297084196,1.145790204
99588.89771,-9.911134889,-0.376115931,1.194203438
99598.66333,-9.949689005,-0.296301086,1.184945686
99608.42896,-9.87320571,-0.25718065,1.140967489
99618.19458,-9.873161359,-0.297091949,1.145402526
99627.96021,-9.950628426,-0.178179929,1.091003543
99637.72583,-9.719702884,-0.297867306,1.106634722
99647.49146,-9.949467253,-0.495857583,1.20712087
99657.25708,-9.797528785,-0.219672955,1.01635226
99667.02271,-10.02603925,-0.45515542,1.242228994
99676.78833,-9.910417219,-0.294680592,1.265970397
99686.55396,-9.951257395,-0.339437867,1.028106658
99696.31958,-9.987573833,-0.455147667,1.242616672
99706.08521,-10.10355067,-0.296332101,1.183394974
99715.85083,-9.911223589,-0.296293333,1.185333364
99725.61646,-9.988646306,-0.217292612,1.135369418
99735.38208,-9.835635366,-0.178963039,1.051848061
99745.14771,-9.7971256,-0.218866584,1.056670776
99754.91333,-9.949777705,-0.216478488,1.176075613
99764.67896,-9.835768417,-0.059229141,1.038542951
99774.44458,-9.795109674,-0.214834733,1.258263357
99784.21021,-9.950539725,-0.258002528,1.099873617
99793.97583,-9.760809162,-0.103156785,0.842160762
99803.74146,-10.06531103,-0.456775914,1.161204283
99813.50708,-9.911941259,-0.377728672,1.113566405
99823.27271,-9.910461569,-0.254769293,1.26153536
99833.03833,-9.987618184,-0.415236367,1.238181635
99842.80396,-9.911985609,-0.337817373,1.109131369
99852.56958,-9.951434796,-0.17979267,1.010366511
99862.33521,-9.833264637,-0.494221581,1.288920937
99872.10083,-9.758974669,-0.2994878,1.025610011
99881.86646,-9.718985214,-0.216431966,1.178401681
99891.63208,-9.950539725,-0.258002528,1.099873617
99901.39771,-9.720864057,0.019810348,0.990517395
99911.16333,-10.06696409,-0.060082033,0.995898366
99920.92896,-9.949866406,-0.136655889,1.167205539
99930.69458,-9.834873346,-0.137438999,1.128050057
99940.46021,-9.756462826,-0.014464113,1.276794368
99950.22583,-9.798331124,0.138722368,0.936118412
99959.99146,-9.873338761,-0.137446752,1.127662379
99969.75708,-9.83442581,-0.176543928,1.17280361
99979.52271,-9.835365231,-0.058422771,1.078861467
99989.28833,-9.721134191,-0.10072992,0.963503989
99999.05396,-9.837425508,-0.022543323,0.872833849
100008.8196,-9.951567848,-0.060058772,0.9970614
100018.5852,-10.02885751,-0.100791949,0.960402565
100028.3508,-9.913328216,-0.220502586,0.974870709
100038.1165,-9.722343746,-0.103149031,0.84254844
100047.8821,-9.799185876,-0.182987137,0.850643158
100057.6477,-9.760361626,-0.142261714,0.886914315
100067.4133,-9.797528785,-0.219672955,1.01635226
100077.179,-10.26054911,-0.382636676,0.868166205
100086.9446,-10.18214262,-0.619669853,1.016507331
100096.7102,-9.987529483,-0.495058966,1.247051708
100106.4758,-9.80021803,-0.345051445,0.747427756
100116.2415,-10.14197576,-0.696259217,1.187039148
100126.0071,-10.02984532,-0.302767556,0.8616222
100135.7727,-10.18061858,-0.536621774,1.168911323
100145.5383,-10.10579238,-0.46081552,0.959224024
100155.304,-10.06616175,-0.418477356,1.076132214
100165.0696,-10.22208369,-0.382628922,0.868553883
100174.8352,-9.951837982,-0.18059904,0.970047995
100184.6008,-10.10686485,-0.222960465,0.85197677
100194.3665,-9.912925031,-0.219696215,1.015189226
100204.1321,-9.875177285,-0.301123801,0.943809945
100213.8977,-10.14573345,-0.223774588,0.811270576
100223.6633,-9.992678157,-0.225356315,0.732184256
100233.429,-9.916327914,-0.066501981,0.674900948
100243.1946,-10.03056299,-0.384202895,0.789855241
100252.9602,-9.913868484,-0.461583122,0.920843898
100262.7258,-9.878221333,-0.107211897,0.639405147
100272.4915,-9.990396129,-0.460792259,0.960387058
100282.2571,-10.1080744,-0.225379576,0.731021221
100292.0227,-9.913735433,-0.58131702,0.934149008
100301.7883,-9.875939305,-0.342647841,0.867607949
100311.554,-9.800040629,-0.504696642,0.765167903
100321.3196,-10.10839292,-0.666016608,0.699169594
100331.0852,-9.723291231,-0.705044001,0.747799927
100340.8508,-9.99505695,-0.6301139,0.49430501
100350.6165,-9.800177712,-0.744970808,0.751459608
100360.3821,-9.646719236,-0.745746164,0.712691804
100370.1477,-9.995278702,-0.430557403,0.472129826
100379.9133,-9.685676537,-0.666737689,0.663115536
100389.679,-10.11049755,-0.590225861,0.488706939
100399.4446,-9.955204578,-0.787332232,0.633388384
100409.2102,-9.800359145,-0.945333674,0.733316275
100418.9758,-9.684914517,-0.625213649,0.739317532
100428.7415,-9.800310763,-0.62523691,0.738154497
100438.5071,-9.763369387,-0.708277236,0.586138184
100448.2727,-9.803358843,-0.79133307,0.433346514
100458.0383,-9.801342917,-0.787301218,0.634939096
100467.804,-9.64931978,-0.950947253,0.452637374
100477.5696,-9.7627001,-0.946938662,0.653066921
100487.3352,-9.610584231,-0.830399231,0.480038458
100497.1008,-9.919384057,-0.952614268,0.369286595
100506.8665,-9.842183093,-0.832058493,0.397075357
100516.6321,-9.764445892,-0.830430245,0.478487745
100526.3977,-9.839897033,-0.707486373,0.625681344
100536.1633,-9.72463787,-0.947737278,0.613136083
100545.929,-9.879080118,-0.788929466,0.553526707
100555.6946,-9.763595171,-0.868728804,0.563559815
100565.4602,-9.878902716,-0.948574663,0.571266854
100575.2258,-9.72539989,-0.989261318,0.536934087
100584.9915,-9.955922247,-0.868767572,0.561621425
100594.7571,-9.610047995,-0.949326758,0.533662084
100604.5227,-9.72463787,-0.947737278,0.613136083
100614.2883,-9.726698146,-0.911857831,0.407108465
100624.054,-9.726117559,-1.070696657,0.465167128
100633.8196,-9.800899413,-1.186414211,0.679289464
100643.5852,-9.80224202,-1.069099424,0.545028804
100653.3508,-9.766107015,-1.153752491,0.312375458
100663.1165,-9.726746528,-1.231954595,0.402270243
100672.8821,-9.688728649,-1.192841913,0.357904368
100682.6477,-9.88145891,-1.193687051,0.315647461
100692.4133,-9.803096772,-1.390808929,0.45955355
100702.179,-9.920375893,-1.514597939,0.270103045
100711.9446,-9.765885263,-1.353308987,0.334550642
100721.7102,-9.611172881,-1.391576532,0.421173424
100731.4758,-9.649239143,-1.750785978,0.460701077
100741.2415,-9.8408929,-1.629478108,0.526094609
100751.0071,-9.80287502,-1.590365425,0.481728734
100760.7727,-9.803233855,-1.631083095,0.445845254
100770.5383,-10.1088969,-1.667024571,0.648771448
100780.304,-9.766647283,-1.394833027,0.258348647
100790.0696,-9.611487366,-1.4722055,0.389724981
100799.8352,-9.803770091,-1.512155567,0.392221628
100809.6008,-9.880253386,-1.551276004,0.436199825
100819.3665,-9.878507595,-1.66778442,0.610779
100829.1321,-9.803322556,-1.551260496,0.436975181
100838.8977,-9.995290797,-1.510581595,0.47092027
100848.6633,-10.07141526,-1.508984361,0.550781947
100858.429,-10.11113458,-1.471499926,0.425003683
100868.1946,-9.725718406,-1.429898351,0.505082459
100877.9602,-9.801217929,-1.627051243,0.647437836
100887.7258,-9.64834004,-1.468987773,0.550611368
100897.4915,-9.840042179,-1.667776666,0.611166678
100907.2571,-9.763066999,-1.707672459,0.616377071
100917.0227,-9.761857443,-1.705253348,0.73733262
100926.7883,-9.877745575,-1.62626038,0.686980996
100936.554,-9.995738333,-1.471476666,0.426166717
100946.3196,-9.953692633,-1.784308344,0.78458282
100956.0852,-9.95503524,-1.666993557,0.65032216
100965.8508,-9.801532414,-1.707680212,0.615989393
100975.6165,-9.915630403,-1.78510696,0.744651981
100985.3821,-9.764635389,-1.750809239,0.459538043
100995.1477,-9.918674451,-1.591195056,0.440247184
101004.9133,-9.956111744,-1.789146566,0.542671722
101014.679,-9.762486412,-1.866511285,0.674435735
101024.4446,-9.992561234,-1.785122467,0.743876625
101034.2102,-10.03093795,-1.86495282,0.752359021
101043.9758,-9.918855885,-1.791557923,0.422103851
101053.7415,-9.956248827,-2.029420731,0.528963426
101063.5071,-10.03295387,-1.868984671,0.550766439
101073.2727,-9.724694316,-1.98785017,0.60749149
101083.0383,-9.802879052,-1.950373489,0.481325549
101092.804,-9.841566219,-1.750824746,0.458762687
101102.5696,-9.915856187,-1.945558528,0.722073612
101112.3352,-9.878689028,-1.868147287,0.592635668
101122.1008,-9.955934343,-1.948791763,0.560411869
101131.8665,-9.799653571,-1.943922526,0.803873679
101141.6321,-9.917331845,-1.708509843,0.574507843
101151.3977,-9.723347677,-1.745156893,0.742155335
101161.1633,-9.956200445,-1.709323967,0.533801648
101170.929,-9.956647981,-1.670219038,0.489048095
101180.6946,-9.724242748,-1.666947035,0.652648229
101190.4602,-9.646058012,-1.704423717,0.77881417
101200.2258,-9.803322556,-1.551260496,0.436975181
101209.9915,-10.03061943,-1.424315787,0.784210649
101219.7571,-10.03088957,-1.544856055,0.757197243
101229.5227,-9.876757771,-1.424284773,0.785761361
101239.2883,-9.91621099,-1.626268134,0.686593318
101249.054,-9.878729346,-1.468227924,0.588603816
101258.8196,-9.99152908,-1.623058159,0.847092027
101268.5852,-9.723746831,-1.3859552,0.702240004
101278.3508,-9.953958736,-1.544840548,0.757972599
101288.1165,-9.878370512,-1.427510254,0.624487296
101297.8821,-10.03182899,-1.426734898,0.6632551
101307.6477,-10.03290549,-1.548887907,0.555604661
101317.4133,-9.953958736,-1.544840548,0.757972599
101327.179,-9.917553596,-1.508953347,0.552332659
101336.9446,-9.798843169,-1.582301722,0.884913897
101346.7102,-9.723347677,-1.745156893,0.742155335
101356.4758,-9.993948191,-1.627896381,0.605180929
101366.2415,-9.837623068,-1.662938444,0.853077776
101376.0071,-9.878015709,-1.746800648,0.65996759
101385.7727,-9.878015709,-1.746800648,0.65996759
101395.5383,-10.07025408,-1.826662015,0.666899273
101405.304,-9.76396207,-1.629462601,0.526869965
101415.0696,-9.992964419,-1.785928838,0.703558109
101424.8352,-9.800637343,-1.78589007,0.705496499
101434.6008,-9.801709815,-1.548035015,0.598249246
101444.3665,-9.99462151,-1.74924302,0.537849007
101454.1321,-9.649460895,-1.551229482,0.438525893
101463.8977,-9.878015709,-1.746800648,0.65996759
101473.6633,-9.72365813,-1.465777798,0.711110077
101483.429,-9.917150411,-1.508146976,0.592651175
101493.1946,-9.761990494,-1.58551945,0.72402751
101502.9602,-9.839280159,-1.626252627,0.687368674
101512.7258,-9.842638692,-1.512969691,0.351515433
101522.4915,-9.8369941,-1.501680507,0.915974661
101532.2571,-9.878414862,-1.387598955,0.620052259
101542.0227,-9.838203655,-1.504099618,0.795019113
101551.7883,-10.07065324,-1.467460321,0.626983942
101561.554,-9.801484032,-1.387583448,0.620827615
101571.3196,-9.877294007,-1.305357245,0.732137734
101581.0852,-9.765482078,-1.352502617,0.374869159
101590.8508,-9.800496228,-1.18560784,0.71960798
101600.6165,-9.724327417,-1.227116373,0.64418134
101610.3821,-9.571360827,-1.148875501,0.556224946
101620.1477,-9.573735588,-1.193625022,0.318748885
101629.9133,-9.495820986,-1.351641972,0.417901421
101639.679,-9.918267234,-1.230380622,0.480968885
101649.4446,-9.801572732,-1.307760849,0.611957542
101659.2102,-9.685910384,-1.547205384,0.639730796
101668.9758,-9.955660177,-1.468243431,0.58782846
101678.7415,-10.06913323,-1.744420305,0.778984749
101688.5071,-9.87814876,-1.62706675,0.64666248
101698.2727,-9.954051468,-1.825026013,0.74869934
101708.0383,-9.953333799,-1.743590674,0.820466299
101717.804,-9.91616664,-1.666179433,0.691028355
101727.5696,-9.992069348,-1.864138696,0.793065215
101737.3352,-10.0321475,-1.867371931,0.631403472
101747.1008,-9.994710211,-1.669420421,0.528978934
101756.8665,-9.992158049,-1.784316097,0.784195142
101766.6321,-9.838832624,-1.665357555,0.732122227
101776.3977,-9.916481124,-1.746808402,0.659579912
101786.1633,-10.11010646,-1.669443682,0.527815899
101795.929,-10.06913323,-1.744420305,0.778984749
101805.6946,-9.876673102,-1.864115435,0.794228249
101815.4602,-10.07065727,-1.827468385,0.626580757
101825.2258,-9.878104409,-1.66697805,0.651097517
101834.9915,-9.724331449,-1.587124437,0.643778155
101844.7571,-9.64905771,-1.550423112,0.478844409
101854.5227,-9.878281811,-1.507332853,0.633357369
101864.2883,-9.838518139,-1.584728587,0.76357067
101874.054,-9.647263536,-1.346834764,0.658261807
101883.8196,-9.570244005,-1.426641855,0.667907236
101893.5852,-9.686265187,-1.22791499,0.604250502
101903.3508,-9.7632444,-1.548027262,0.598636924
101913.1165,-9.532943794,-1.468964512,0.551774402
101922.8821,-9.725895808,-1.270253154,0.487342312
101932.6477,-9.955660177,-1.468243431,0.58782846
101942.4133,-9.800992146,-1.466599676,0.670016205
101952.179,-9.687297341,-1.389979298,0.5010351
101961.9446,-9.956825382,-1.510573841,0.471307948
101971.7102,-9.722718709,-1.583898956,0.80505222
101981.4758,-9.84017523,-1.548042769,0.597861568
101991.2415,-9.955168291,-1.547259659,0.63701705
102001.0071,-9.84161057,-1.710913447,0.45432765
102010.7727,-9.762260628,-1.706059718,0.697014104
102020.5383,-9.647626402,-1.747560497,0.621975142
102030.304,-9.68711994,-1.549624495,0.518775248
102040.0696,-9.723617811,-1.865697161,0.715141929
102049.8352,-9.80130663,-1.547228645,0.638567762
102059.6008,-9.647356268,-1.627020229,0.648988548
102069.3665,-9.761184124,-1.583906709,0.804664542
102079.1321,-9.801036496,-1.426688377,0.665581168
102088.8977,-9.837933521,-1.38355935,0.822032518
102098.6633,-9.876487637,-1.303744505,0.812774767
102108.429,-9.798931869,-1.502479124,0.876043823
102118.1946,-9.876354586,-1.423478402,0.826079877
102127.9602,-9.877160956,-1.425091143,0.745442845
102137.7258,-9.914912734,-1.703671621,0.81641894
102147.4915,-9.722988843,-1.704439224,0.778038814
102157.2571,-9.608443318,-1.666117404,0.694129779
102167.0227,-9.877031937,-1.904833105,0.75834477
102176.7883,-9.993101502,-2.026203004,0.689849814
102186.554,-9.802564568,-1.86974452,0.512773991
102196.3196,-9.761861475,-2.065261411,0.736929435
102206.0852,-9.764010452,-1.949559365,0.522031743
102215.8508,-9.72348476,-1.985431059,0.728447039
102225.6165,-9.801221961,-1.987059307,0.647034651
102235.3821,-9.801846898,-1.788309181,0.58454095
102245.1477,-9.723976646,-1.906414831,0.679258449
102254.9133,-9.915453002,-1.944752157,0.762392129
102264.679,-9.647090166,-1.866488025,0.675598769
102274.4446,-9.607818381,-1.86486753,0.756623479
102284.2102,-9.453597885,-1.824118847,0.794057671
102293.9758,-9.454851791,-1.786626658,0.668667085
102303.7415,-9.570469788,-1.587093423,0.645328867
102313.5071,-9.416563777,-1.626973708,0.651314616
102323.2727,-9.494212277,-1.708424554,0.578772301
102333.0383,-9.493002721,-1.706005443,0.69972785
102342.804,-9.418801455,-1.431449063,0.427546851
102352.5696,-9.646997434,-1.586302559,0.684872027
102362.3352,-9.724016965,-1.506495468,0.675226598
102372.1008,-9.339274112,-1.586240531,0.687973452
102381.8665,-9.493450257,-1.666900514,0.654974297
102391.6321,-9.802113,-1.548841385,0.55793073
102401.3977,-9.647892505,-1.508092702,0.595364921
102411.1633,-9.61023346,-1.509697689,0.515115567
102420.929,-9.647759454,-1.627826599,0.608670032
102430.6946,-9.648880308,-1.710068309,0.496584556
102440.4602,-9.491523032,-1.583046064,0.847696805
102450.2258,-9.647223217,-1.746754127,0.662293658
102459.9915,-9.722767091,-1.90399572,0.800213998
102469.7571,-9.724242748,-1.666947035,0.652648229
102479.5227,-9.839191459,-1.706075225,0.696238748
102489.2883,-9.723125926,-1.94471339,0.764330519
102499.054,-9.570651222,-1.787456289,0.627185535
102508.8196,-9.685063696,-1.945512006,0.724399681
102518.5852,-9.723976646,-1.906414831,0.679258449
102528.3508,-9.800459941,-1.945535267,0.723236646
102538.1165,-9.761325239,-2.184188939,0.790553061
102547.8821,-9.610374575,-2.109979918,0.501004086
102557.6477,-9.724831399,-2.228124336,0.593783195
102567.4133,-9.646376528,-2.145060749,0.746962543
102577.179,-9.80113326,-2.066881906,0.655904724
102586.9446,-9.685559613,-2.226503842,0.674807906
102596.7102,-9.648348104,-2.1890039,0.549804998
102606.4758,-9.722771123,-2.264003784,0.799810813
102616.2415,-9.763341164,-2.18822079,0.58896048
102626.0071,-9.495651648,-2.231303296,0.434835198
102635.7727,-9.532415622,-2.307908167,0.604591659
102645.5383,-9.570030316,-2.346214479,0.68927605
102655.304,-9.724653997,-2.387769533,0.611523342
102665.0696,-9.569945648,-2.786045141,0.697742938
102674.8352,-9.532552705,-2.548182333,0.590883363
102684.6008,-9.490732789,-3.021465578,0.926721097
102694.3665,-9.567974072,-2.74210199,0.894900483
102704.1321,-9.568961876,-2.944077598,0.796120118
102713.8977,-9.876104611,-3.102978453,0.851077357
102723.6633,-9.721210796,-2.940883131,0.955843471
102733.429,-9.799621316,-3.063858017,0.80709916
102743.1946,-9.566724198,-3.139602242,1.019887884
102752.9602,-9.643388926,-3.379085545,1.045722748
102762.7258,-9.758652121,-3.498842704,1.057864824
102772.4915,-9.565788809,-3.617731463,1.113426841
102782.2571,-9.679798097,-3.77498081,1.250959503
102792.0227,-9.719428718,-3.817318974,1.134051313
102801.7883,-9.794166221,-3.972947826,1.352608686
102811.554,-9.716787855,-4.012037248,1.398137595
102821.3196,-9.872891225,-4.176551681,1.172415932
102831.0852,-9.641336714,-4.13498112,1.250943996
102840.8508,-9.793182449,-4.130980283,1.450985865
102850.6165,-9.563913998,-4.213981841,1.300907942
102860.3821,-9.679846479,-4.095077574,1.246121281
102870.1477,-9.717864359,-4.134190257,1.290487156
102879.9133,-9.604213905,-4.01765858,1.117071015
102889.679,-9.641514115,-3.975335923,1.233203849
102899.4446,-9.564587317,-4.33532848,1.23357602
102909.2102,-9.563869647,-4.25389314,1.305342979
102918.9758,-9.410725656,-4.335297465,1.235126732
102928.7415,-9.560466764,-4.407087375,1.645631256
102938.5071,-9.677878936,-4.411142487,1.442875641
102948.2727,-9.640352942,-4.293013576,1.349321176
102958.0383,-9.409112915,-4.332071984,1.396400797
102967.804,-9.450489327,-4.257901731,1.104913431
102977.5696,-9.602649547,-4.334529863,1.273506858
102987.3352,-9.411842479,-4.057531111,1.123444442
102997.1008,-9.75910772,-4.179753902,1.012304901
103006.8665,-9.718448978,-4.335359494,1.232025308
103016.6321,-9.450666729,-4.098256534,1.087173284
103026.3977,-9.641961651,-3.936230994,1.188450296
103036.1633,-9.56579284,-3.977739527,1.113023656
103045.929,-9.449364441,-3.815651958,1.217402092
103055.6946,-9.603762338,-3.696755445,1.162227753
103065.4602,-9.450126461,-3.857175998,1.141200096
103075.2258,-9.489035379,-3.458070759,1.09646205
103084.9915,-9.643792112,-3.379891915,1.005404232
103094.7571,-9.333290844,-3.334273995,1.286300233
103104.5227,-9.452089972,-3.181103022,0.944848922
103114.2883,-9.643433277,-3.339174246,1.041287711
103124.054,-9.413443124,-2.980732401,0.963379932
103133.8196,-9.642130989,-3.05656967,1.171516519
103143.5852,-9.529734441,-2.902545804,0.872709792
103153.3508,-9.527807215,-2.818691354,1.0654323
103163.1165,-9.490236871,-2.740473743,0.976312872
103172.8821,-9.491579478,-2.623158956,0.842052212
103182.6477,-9.64476782,-2.501843332,0.907833422
103192.4133,-9.644900871,-2.382109434,0.894528312
103202.179,-9.569490048,-2.105133943,0.743302862
103211.9446,-9.569223946,-2.344601738,0.769913083
103221.7102,-9.876898886,-2.024567002,0.77164988
103231.4758,-9.608088515,-1.985407799,0.729610073
103241.2415,-9.760647888,-1.702834237,0.858288169
103251.0071,-9.607503896,-1.784238562,0.788071922
103260.7727,-9.683628356,-1.782641328,0.867933599
103270.5383,-9.875552247,-1.781873726,0.906313725
103280.304,-9.993992541,-1.587985082,0.600745893
103290.0696,-9.95422887,-1.665380816,0.730959193
103299.8352,-9.877564141,-1.425897513,0.705124328
103309.6008,-9.724198398,-1.706858335,0.657083265
103319.3665,-9.762841215,-1.547220891,0.63895544
103329.1321,-9.60951579,-1.428262349,0.586882526
103338.8977,-9.880027603,-1.390824436,0.458778194
103348.6633,-9.956196413,-1.349315903,0.534204834
103358.429,-9.804439379,-1.273494142,0.325292891
103368.1946,-9.880563839,-1.271896909,0.405154567
103377.9602,-9.766691633,-1.354921728,0.25391361
103387.7258,-9.573828321,-1.473810487,0.309475627
103397.4915,-9.72675056,-1.591962659,0.401867057
103407.2571,-9.959111442,-1.635145961,0.242701961
103417.0227,-10.15174897,-1.355805634,0.209718313
103426.7883,-9.882628147,-1.596025525,0.198723764
103436.554,-9.768215673,-1.437969808,0.101509618
103446.3196,-10.11346499,-1.556160747,0.191962659
103456.0852,-9.922436169,-1.478718491,0.064075427
103465.8508,-10.11565832,-1.400547401,-0.02737007
103475.6165,-9.999189598,-1.638379196,0.081040218
103485.3821,-10.03863878,-1.480354493,-0.01772464
103495.1477,-9.961260419,-1.519443915,0.027804269
103504.9133,-9.923335272,-1.760516697,-0.025834865
103514.679,-9.694913509,-1.445211633,-0.260581672
103524.4446,-9.733378924,-1.445219387,-0.26096935
103534.2102,-9.388129609,-1.327028448,-0.351422391
103543.9758,-9.657609267,-1.127526226,-0.376311321
103553.7415,-9.50321137,-1.24642274,-0.321136982
103563.5071,-9.351631737,-1.010955781,-0.547789072
103573.2727,-9.734140944,-1.486743427,-0.337171346
103583.0383,-10.11669047,-1.562611709,-0.130585471
103592.804,-9.810664558,-1.1259445,-0.297225001
103602.5696,-9.887639739,-1.086048708,-0.302435393
103612.3352,-9.811245144,-0.967105673,-0.355283664
103622.1008,-9.810483124,-0.925581633,-0.279081668
103631.8665,-9.887143821,-0.805056872,-0.252843618
103641.6321,-9.578972963,-0.844099773,-0.204988641
103651.3977,-9.617305327,-0.963841424,-0.192071209
103661.1633,-9.388613431,-0.527996092,-0.39980461
103670.929,-9.195258232,-0.72590108,-0.295054004
103680.6946,-9.390230203,-0.891229637,-0.561481861
103690.4602,-9.735253735,-0.848969009,-0.448450451
103700.2258,-9.924891566,-0.723629287,-0.181464337
103709.9915,-9.925653586,-0.765153327,-0.257666333
103719.7571,-9.966493762,-0.809910601,-0.495530072
103729.5227,-9.735435169,-1.049331876,-0.466593783
103739.2883,-9.926959906,-1.407765967,-0.388298326
103749.054,-10.12215363,-1.373538027,-0.676901367
103758.8196,-10.2756121,-1.372762671,-0.638133563
103768.5852,-10.04535585,-1.253788622,-0.689431121
103778.3508,-10.1997981,-1.09498081,-0.749040497
103788.1165,-10.12255278,-1.014336334,-0.716816698
103797.8821,-9.585960162,-0.738074171,-0.903708528
103807.6477,-9.469310011,-0.775543098,-0.777154908
103817.4133,-9.7386163,-1.095694138,-0.784706877
103827.179,-9.702162778,-0.739710172,-0.985508595
103836.9446,-9.700368604,-0.536121824,-0.806091197
103846.7102,-9.623748226,-0.256727222,-0.836361099
103856.4758,-9.434509549,-0.022865251,-1.143262543
103866.2415,-9.278587611,-0.058713684,-0.935684213
103876.0071,-9.319343118,-0.543301621,-1.165081063
103885.7727,-9.781561102,-1.064660665,-1.233033271
103895.5383,-10.04970219,-1.342481295,-1.124064727
103905.304,-10.20472905,-1.384842719,-1.242135951
103915.0696,-10.66331434,-1.538936367,-0.946818326
103924.8352,-10.05046017,-1.023997271,-1.199863537
103934.6008,-10.08793779,-0.822029417,-1.10147085
103944.3665,-9.932104549,-0.778055252,-0.902762594
103954.1321,-10.04875067,-0.380578261,-1.028913028
103963.8977,-9.740535461,-0.45953246,-0.976623014
103973.6633,-9.739503307,-0.297468152,-0.873407612
103983.429,-9.54806727,0.140788537,-0.960573143
103993.1946,-9.239223093,0.223092275,-0.845386244
104002.9602,-9.277511107,0.063439325,-0.828033775
104012.7258,-9.431469532,-0.576785219,-0.839260931
104022.4915,-9.816845386,-1.018306157,-0.915307855
104032.2571,-10.1234922,-0.896215177,-0.810758841
104042.0227,-10.16339296,-1.059093609,-0.954680437
104051.7883,-10.12470176,-0.898634288,-0.93171439
104061.554,-10.08592186,-0.817997565,-0.899878269
104071.3196,-10.16294542,-1.098198538,-0.909926884
104081.0852,-10.27798283,-1.057504129,-0.875206439
104090.8508,-10.08551867,-0.817191195,-0.859559753
104100.6165,-9.89260698,-0.61598319,-0.799159514
104110.3821,-9.547176231,-0.297429384,-0.871469222
104120.1477,-9.434154746,-0.342155645,-1.107782249
104129.9133,-9.510194537,-0.780389074,-1.019453684
104139.679,-9.856383274,-0.780458856,-1.022942786
104149.4446,-9.628005862,-0.425242493,-1.262124631
104159.2102,-9.820603072,-0.545821529,-1.291076427
104168.9758,-9.627824428,-0.224879626,-1.243981298
104178.7415,-9.664725485,-0.541758663,-1.087933133
104188.5071,-9.624828763,-0.738888294,-0.944414722
104198.2727,-9.703106232,-0.981597078,-1.079853923
104208.0383,-9.816579284,-1.257773953,-0.888697634
104217.804,-10.01145852,-1.142917045,-1.145852233
104227.5696,-10.280535,-0.942608453,-1.130422647
104237.3352,-10.20512821,-1.025641026,-1.282051282
104247.1008,-9.89569941,-0.742168051,-1.108402534
104256.8665,-9.509476867,-0.698953735,-0.947686725
104266.6321,-9.702832066,-0.501048747,-1.052437332
104276.3977,-9.664503733,-0.741315159,-1.065757949
104286.1633,-9.742107883,-0.862677305,-1.133865228
104295.929,-9.93447931,-0.822804773,-1.140238655
104305.6946,-9.934120475,-0.782087104,-1.104355175
104315.4602,-9.97334791,-0.823618897,-1.180944849
104325.2258,-9.55089763,-0.584872183,-1.243609127
104334.9915,-9.66512867,-0.542565033,-1.12825165
104344.7571,-9.588016407,-0.342186659,-1.109332961
104354.5227,-9.743938344,-0.306338226,-1.316911292
104364.2883,-9.626574554,-0.622379878,-1.118993898
104374.054,-9.513105534,-0.706211067,-1.310553372
104383.8196,-9.512077412,-0.904154823,-1.207741155
104393.5852,-10.05095206,-0.944981043,-1.249052127
104403.3508,-9.8583992,-0.784490707,-1.224535368
104413.1165,-9.667237329,-0.82678235,-1.33911749
104422.8821,-9.820736123,-0.426087631,-1.304381537
104432.6477,-9.818091228,-0.260797841,-1.03989207
104442.4133,-9.628271964,-0.185774697,-1.288734851
104452.179,-9.509517186,-0.299034372,-0.951718577
104461.9446,-9.742240934,-0.742943407,-1.147170338
104471.7102,-10.08914734,-0.824448528,-1.222426399
104481.4758,-9.896820265,-0.82440976,-1.220488009
104491.2415,-10.24130756,-0.901076659,-1.053832973
104501.0376,-9.971065882,-1.059054841,-0.952742047
104510.7727,-9.779762896,-0.501064254,-1.053212688
104520.5383,-9.740801563,-0.220064665,-1.003233235
104530.304,-9.666693029,-0.22569375,-1.284687493
104540.0696,-9.781827204,-0.82519287,-1.259643491
104549.8352,-9.746680003,-1.111821544,-1.591077202
104559.6008,-9.821465888,-1.587547161,-1.377358052
104569.3665,-9.899203089,-1.589175409,-1.45877044
104579.1321,-9.822715762,-1.190046909,-1.502345452
104588.8977,-9.901344002,-0.753457235,-1.672861762
104598.6633,-10.01494204,-0.189884084,-1.494204213
104608.429,-9.706815535,-0.189015685,-1.450784273
104618.1946,-9.591020136,-0.548194118,-1.409705907
104627.9602,-9.514133656,-0.508267312,-1.413365588
104637.7258,-9.167767517,-0.667842727,-1.392136339
104647.4915,-9.745559148,-1.029579835,-1.478991727
104657.2571,-9.90027153,-0.99131229,-1.565614508
104667.0227,-9.784875284,-0.991289029,-1.564451474
104676.7883,-9.089897265,-0.785948377,-1.29741884
104686.554,-10.05431059,-0.831698107,-1.584905368
104696.3196,-9.859568437,-1.186829181,-1.341459065
104706.0852,-9.822268227,-1.229151838,-1.457591899
104715.8508,-9.937483039,-1.028812232,-1.440611601
104725.6165,-9.669882223,-0.992072139,-1.603606956
104735.3821,-9.439222783,-0.87229172,-1.614585999
104745.1477,-9.47710358,-0.671130237,-1.556511828
104754.9133,-9.977065277,-0.751053631,-1.552681569
104764.679,-9.975900072,-0.708723221,-1.436161057
104774.4446,-9.902110054,-1.154989339,-1.749466943
104784.2102,-9.707900103,-1.031184822,-1.559241081
104793.9758,-9.594922968,-1.035999783,-1.799989145
104803.7415,-9.594249649,-0.914653144,-1.732657223
104813.5071,-9.671853799,-1.03601529,-1.800764501
104823.2727,-9.670870027,-1.194047746,-1.702387321
104833.0383,-10.01545006,-1.550900111,-1.545005544
104842.804,-10.21046234,-1.316309305,-1.815465252
104852.5696,-10.09376784,-1.393689532,-1.684476596
104862.3352,-10.13210021,-1.513431183,-1.671559164
104872.1008,-9.939188512,-1.312223178,-1.611158925
104881.8665,-10.05449606,-1.392069038,-1.603451885
104891.6321,-10.20983338,-1.155051367,-1.752568367
104901.3977,-10.05458476,-1.312246439,-1.612321959
104911.1633,-9.862479434,-1.112651175,-1.632558753
104920.929,-9.78362541,-1.388789281,-1.439464074
104930.6946,-9.861451312,-1.310594931,-1.529746536
104940.4602,-10.13142286,-1.032076481,-1.603824056
104950.2258,-10.01306723,-0.786134462,-1.306723113
104959.9915,-9.82262303,-0.909861444,-1.493072193
104969.7571,-9.744926147,-0.508313833,-1.415691656
104979.5227,-9.745913951,-0.71028944,-1.514472021
104989.2883,-10.09206237,-1.110278585,-1.513929272
104999.054,-10.17056159,-1.153430873,-1.671543656
105008.8196,-10.12851589,-1.466262551,-1.313127554
105018.5852,-10.32316935,-1.190954076,-1.547703783
105028.3508,-10.39701178,-1.424792786,-1.239639304
105038.1165,-10.12748374,-1.304198243,-1.209912152
105047.8821,-9.822534329,-0.989684042,-1.48420212
105057.6477,-9.938063626,-0.869973405,-1.498670264
105067.4133,-9.782004606,-0.665547673,-1.277383638
105077.179,-9.782403759,-0.306345979,-1.31729897
105086.9446,-9.705517279,-0.266419173,-1.32095865
105096.7102,-9.899948982,-0.190667194,-1.533359695
105106.4758,-9.937878161,-0.309602475,-1.480123747
105116.2415,-9.742285285,-0.703032107,-1.151605375
105126.0071,-9.589810581,-0.545775007,-1.288750359
105135.7727,-9.858709652,-0.505111613,-1.255580625
105145.5383,-9.972940693,-0.462804463,-1.140223147
105155.304,-10.0135954,0.052809193,-1.359540369
105165.0696,-10.16579997,0.01609236,-1.195381979
105174.8352,-10.05031503,-0.063706977,-1.185348871
105184.6008,-10.12729021,-0.023811185,-1.190559264
105194.3665,-10.08909493,-0.1443437,-1.217184992
105204.1321,-9.897707272,-0.026183775,-1.309188745
105213.8977,-9.74299489,-0.064451319,-1.222565963
105223.6633,-9.860540113,0.051227466,-1.438626689
105233.429,-9.863136625,0.206034441,-1.698277934
105243.1946,-9.937559644,0.131034558,-1.448272119
105252.9602,-9.74621634,0.289105782,-1.544710908
105262.7258,-9.862818109,0.646671474,-1.666426306
105272.4915,-9.402398331,0.604434106,-1.778294682
105282.2571,-9.516810805,0.446378389,-1.681080536
105292.0227,-9.170174533,0.407343242,-1.632837881
105301.7883,-9.671208703,0.565274902,-1.736254875
105311.554,-9.709270933,0.566073519,-1.696324037
105321.3196,-9.632521536,0.36572616,-1.713692013
105331.0852,-9.51869368,0.32261264,-1.869368007
105340.8508,-9.441359664,0.323434517,-1.828274135
105350.6165,-9.517391392,0.605217216,-1.7391392
105360.3821,-9.441266932,0.603619982,-1.819000876
105370.1477,-9.516810805,0.446378389,-1.681080536
105379.9133,-9.516718073,0.726563854,-1.671807277
105389.679,-9.480179883,0.642717158,-1.864142107
105399.4446,-9.707388058,0.689839269,-1.508036566
105409.2102,-9.668471075,1.010750157,-1.46249215
105418.9758,-9.590959658,0.851926837,-1.40365813
105428.7415,-9.51429493,1.09141014,-1.429492995
105438.5071,-9.626510045,1.137749141,-1.112542935
105448.2727,-9.625796407,0.859176417,-1.041179162
105458.0383,-9.70223132,1.140152745,-0.992362743
105467.804,-9.665152861,1.297386585,-1.130670761
105477.5696,-9.702497422,1.379620541,-1.018972963
105487.3352,-9.701287866,1.382039652,-0.898017414
105497.1008,-9.777367976,1.343725586,-0.813720701
105506.8665,-10.23890861,1.303721244,-0.813937801
105516.6321,-10.31593217,1.023520272,-0.823986416
105526.3977,-9.352627604,2.067052484,-0.647375807
105536.1633,-8.932773836,2.460606173,-0.969691331
105545.929,-9.930552286,1.825049274,-0.747536306
105555.6946,-10.04729114,1.9423408,-0.882959999
105565.4602,-9.66286277,1.781966768,-0.901661588
105575.2258,-9.662326533,1.663039241,-0.848037961
105584.9915,-9.930556318,1.46504121,-0.747939491
105594.7571,-9.854250425,1.663806843,-0.809657835
105604.5227,-9.81430532,1.786773976,-0.661301203
105614.2883,-9.659592938,1.748506432,-0.574678421
105624.054,-9.507295636,2.065408729,-0.729563552
105633.8196,-9.584762702,2.184320749,-0.783962535
105643.5852,-9.429735836,2.226682174,-0.665891311
105653.3508,-9.661153265,2.425385778,-0.730711079
105663.1165,-9.661645151,2.504402007,-0.779899669
105672.8821,-9.776323727,2.585814085,-0.709295744
105682.6477,-9.697558404,2.389498577,-0.525071139
105692.4133,-9.698183341,2.588248703,-0.587564839
105702.179,-9.620716274,2.469336683,-0.533165856
105711.9446,-9.661197615,2.465297078,-0.735146116
105721.7102,-9.546829491,2.663264094,-0.836795298
105731.4758,-9.54660774,2.463707598,-0.814620114
105741.2415,-9.43174773,2.582658386,-0.867080707
105751.0071,-9.468511704,2.506053515,-0.697324246
105760.7727,-9.509263179,2.381473642,-0.926317912
105770.5383,-9.773731246,2.070999046,-0.450047684
105780.304,-9.507295636,2.065408729,-0.729563552
105790.0696,-9.582613725,2.068618703,-0.569064843
105799.8352,-9.621704078,2.267361076,-0.631946221
105809.6008,-9.467620665,2.067835593,-0.608220325
105819.3665,-9.812958681,2.029467253,-0.526637358
105829.1321,-9.313400169,2.108584277,-0.570786134
105838.8977,-9.502501764,2.114996472,-0.250176394
105848.6633,-9.657750382,2.272191544,-0.390422802
105858.429,-9.734322378,2.312893706,-0.355314678
105868.1946,-9.465064471,2.312947981,-0.352600932
105877.9602,-9.504380607,2.351238786,-0.438060679
105887.7258,-9.887244617,2.194741535,-0.262923248
105897.4915,-9.808434944,1.958514728,-0.074263606
105907.2571,-9.616777155,2.197214921,-0.139253952
105917.0227,-9.617450474,2.075868283,-0.206585875
105926.7883,-9.539939057,1.917044963,-0.147751855
105936.554,-9.888276771,2.032677227,-0.366138649
105946.3196,-9.848246997,1.715813697,-0.209315128
105956.0852,-9.734596543,1.832345375,-0.382731269
105965.8508,-9.886801113,1.795628542,-0.21857288
105975.6165,-9.730879176,1.759780109,-0.010994549
105985.3821,-9.811527374,1.832329867,-0.383506625
105995.1477,-9.849009017,1.674289658,-0.285517124
106004.9133,-9.734507843,1.752522776,-0.373861196
106014.679,-9.812067642,1.591249331,-0.437533437
106024.4446,-9.927105053,1.63194374,-0.402812992
106034.2102,-10.0038101,1.7923798,-0.381009979
106043.9758,-9.733971606,1.633595249,-0.320237569
106053.7415,-9.809063913,1.79725679,-0.137160491
106063.5071,-9.658653517,1.630385274,-0.480736278
106073.2727,-9.888369504,1.752491762,-0.375411908
106083.0383,-9.926613167,1.552927512,-0.353624402
106092.804,-9.73522148,2.031095501,-0.44522497
106102.5696,-10.00466082,1.830678359,-0.466082048
106112.3352,-9.774182813,1.750095912,-0.495204423
106122.1008,-9.621260574,1.868248083,-0.587595853
106131.8665,-9.581319501,1.631207152,-0.439642406
106141.6321,-9.620635637,1.669497957,-0.525102153
106151.3977,-9.583291076,1.587264001,-0.63679995
106161.1633,-9.621893575,1.346982082,-0.650895924
106170.929,-9.58351686,1.426812434,-0.659378319
106180.6946,-9.467225543,1.348625836,-0.568708179
106190.4602,-9.391907453,1.345415862,-0.729206888
106200.2258,-9.698735704,1.267143976,-0.642801206
106209.9915,-9.812789344,1.149805928,-0.509703581
106219.7571,-9.735366627,1.070805207,-0.459739635
106229.5227,-9.887168012,1.034894745,-0.255262729
106239.2883,-10.15642592,1.03484047,-0.257976476
106249.054,-9.925722128,1.11470959,-0.264520481
106258.8196,-10.19238352,0.95984834,-0.007582982
106268.5852,-10.0781041,1.237637955,-0.118102238
106278.3508,-10.19103688,1.202541617,0.127080862
106288.1165,-10.11473502,1.041299187,0.064959333
106297.8821,-10.34566056,1.160986563,0.049328154
106307.6477,-10.11558574,1.079597745,-0.020112737
106317.4133,-9.846235103,1.359837485,-0.008125732
106327.179,-10.65168245,1.084327417,0.216370868
106336.9446,-9.961365247,1.120346429,0.017321455
106346.7102,-9.962123235,1.438830453,-0.058477356
106356.4758,-9.729851054,1.561836353,0.091817667
106366.2415,-10.15041846,1.446855388,0.342769417
106376.0071,-9.914787746,1.456578354,0.82891768
106385.7727,-10.07012506,1.693596024,0.679801199
106395.5383,-10.33745575,1.777396199,0.86980996
106405.304,-10.2957205,1.743943616,1.197180805
106415.0696,-9.998262272,1.163475456,0.173772805
106424.8352,-10.40762919,1.150895459,1.544772937
106434.6008,-9.985449047,1.269101905,1.455095252
106444.3665,-9.760926085,1.456609368,0.830468393
106454.1321,-10.10769541,1.615378413,0.768920627
106463.8977,-9.986211067,1.227577865,1.378893257
106473.6633,-10.10330472,1.664159785,1.207989269
106483.429,-9.951281586,1.500513751,1.025687547
106493.1946,-10.10621975,1.378329728,0.916486396
106502.9602,-10.06761725,1.618611647,0.93058237
106512.7258,-10.06990331,1.494039528,0.701976383
106522.4915,-10.03063556,1.135651958,0.782597908
106532.2571,-10.18713808,1.330339218,0.516960914
106542.0227,-10.10926783,1.212233568,0.611678413
106551.7883,-9.801274375,1.332835865,0.641793244
106561.554,-10.07174184,1.330362479,0.518123948
106571.3196,-9.611051926,1.40866538,0.433268979
106581.0852,-9.726940057,1.487658347,0.382917355
106590.8508,-9.765675607,1.367110325,0.355516271
106600.6165,-9.764869236,1.368723066,0.436153303
106610.3821,-9.494490475,1.45101905,0.550952525
106620.1477,-9.800375272,1.614634071,0.731703535
106629.9133,-10.60537508,1.300019074,1.000953688
106639.679,-10.07161282,0.850620517,0.531025874
106649.4446,-9.308574043,1.03823653,-0.088173494
106659.2102,-9.040344258,1.236234561,-0.188271964
106668.9758,-9.386218511,1.316793748,-0.160312624
106678.7415,-9.382771278,1.123688214,0.184410691
106688.5071,-9.576215177,1.4014158,0.07079001
106698.2727,-9.422442217,1.481269413,0.063470649
106708.0383,-9.497534523,1.644930955,0.246547727
106717.804,-9.61391454,1.80294015,0.147007513
106727.5696,-9.959030805,1.565015313,0.250765664
106737.3352,-9.920787141,1.764579563,0.228978158
106747.1008,-9.80566103,1.644062556,0.203127786
106756.8665,-9.919178433,1.407796981,0.389849038
106766.6321,-9.689954332,1.364706722,0.235336078
106776.3977,-10.03569553,1.325532011,0.276600529
106786.1633,-10.07246354,0.888919076,0.445953804
106795.929,-9.882148357,1.244934056,0.246702798
106805.6946,-9.920121886,1.165910074,0.29550371
106815.4602,-9.844799764,1.522708164,0.135408186
106825.2258,-10.265726,1.367009529,0.350476456
106834.9915,-9.958224435,1.566628054,0.331402697
106844.7571,-9.880801718,1.487627333,0.381366643
106854.5227,-9.920339606,1.725474634,0.273731711
106864.2883,-9.995750428,1.448499143,0.424957162
106874.054,-10.07501167,1.363822816,0.191140781
106883.8196,-9.956926178,1.489224566,0.461228319
106893.5852,-9.803467703,1.48844921,0.422460515
106903.3508,-9.879547812,1.450135145,0.506757228
106913.1165,-9.880398533,1.488433703,0.421685159
106922.8821,-10.07353198,1.486782195,0.339109736
106932.6477,-9.844352229,1.483603235,0.180161739
106942.4133,-9.576122444,1.681601265,0.080063269
106952.179,-9.844795732,1.882716227,0.135811371
106961.9446,-9.80413699,1.727110636,0.355531778
106971.7102,-9.76844952,1.681562498,0.078124879
106981.4758,-9.9228958,1.480362246,0.018112318
106991.2415,-9.729359168,1.482820125,0.141006257
107001.0071,-9.692014608,1.400586169,0.02930846
107010.7727,-9.613781489,1.683206252,0.160312624
107020.5383,-9.806826235,1.601732145,0.086607274
107030.304,-9.57661433,1.760617494,0.030874679
107040.0696,-9.690220434,1.604174517,0.208725857
107049.8352,-9.805169144,1.565046328,0.252316376
107059.6008,-10.03775581,1.361411458,0.070572911
107069.3665,-9.806648833,1.442086948,0.104347422
107079.1321,-9.768719655,1.561022229,0.051111473
107088.8977,-9.882370108,1.444490552,0.224527614
107098.6633,-9.651980802,1.443730703,0.186535166
107108.429,-9.883894148,1.361442472,0.072123623
107118.1946,-10.19148442,1.241646546,0.082327309
107127.9602,-9.807322153,1.32074031,0.037015499
107137.7258,-9.887434114,1.274362541,-0.28187295
107147.4915,-10.4635243,0.836028316,-0.1985842
107157.2571,-10.03704217,1.082838734,0.141936684
107167.0227,-8.575170927,1.643504299,0.175214967
107176.7883,-9.734773945,1.991990572,-0.400471416
107186.554,-11.2284903,0.564557853,0.22789266
107196.3196,-8.952571779,1.297933366,0.896668295
107206.0852,-9.455392059,1.972292805,0.614640274
107215.8508,-10.26505269,1.488356168,0.417808378
107225.6165,-9.80387492,1.127634776,0.381738814
107235.3821,-9.346317756,1.479672179,-0.016391028
107245.1477,-9.766078792,1.366303955,0.315197755
107254.9133,-10.49937708,2.121245842,0.062292108
107264.679,-9.757942515,-0.137423492,1.128825413
107274.4446,-10.10855016,1.293668907,0.683445372
107284.2102,-9.924823025,1.396507796,-0.17461019
107293.9758,-9.80472564,1.165933335,0.296666744
107303.7415,-9.917033488,0.932086871,0.604343545
107313.5071,-9.805576361,1.204231893,0.211594675
107323.2727,-9.764691835,1.209077869,0.453893451
107333.0383,-9.688075489,1.128464407,0.423220364
107342.804,-9.801858994,1.131666628,0.583331395
107352.5696,-9.801096974,1.173190668,0.659533391
107362.3352,-9.843727292,1.284853109,0.24265544
107372.1008,-9.841755716,1.32879626,0.439812984
107381.8665,-9.878967226,1.291296318,0.564815892
107391.6321,-9.722686454,1.296165554,0.808277702
107401.3977,-9.757926388,1.302608763,1.130438154
107411.1633,-10.1470559,1.693580517,0.679025843
107420.929,-10.26595179,1.206557962,0.327898087
107430.6946,-9.615446644,0.999875943,-0.006202849
107440.4602,-9.577960969,1.517924217,-0.103789165
107450.2258,-9.767691532,1.363078474,0.153923689
107459.9915,-10.03860653,1.399710017,-0.014499159
107469.7571,-9.922540997,1.161071852,0.053592612
107479.5227,-10.07662441,1.360597334,0.029866716
107489.2883,-9.613785521,1.323198189,0.159909438
107499.054,-9.575856342,1.44213347,0.10667349
107508.8196,-9.690716351,1.323182682,0.159134082
107518.5852,-9.808172873,1.359038869,-0.04805657
107528.3508,-9.575723291,1.322399572,0.1199786
107538.1165,-9.768675304,1.52111093,0.05554651
107547.8821,-9.998927527,1.762144945,0.107247253
107557.6477,-10.03703814,1.442846797,0.14233987
107567.4133,-9.883176479,1.442877812,0.143890582
107577.179,-9.844981198,1.322345297,0.117264854
107586.9446,-9.729093066,1.24335233,0.167616478
107596.7102,-9.6904946,1.123626185,0.181309266
107606.4758,-9.806693184,1.481998248,0.099912385
107616.2415,-9.730657424,1.560223613,0.011180635
107626.0071,-9.728597148,1.524344165,0.217208253
107635.7727,-9.691341288,1.521932808,0.096640382
107645.5383,-9.997855055,1.52428989,0.214494507
107655.304,-9.88335388,1.602523009,0.126150435
107665.0696,-10.03453033,1.367862421,0.393121041
107674.8352,-9.766167492,1.446126554,0.306327681
107684.6008,-9.804947392,1.365489831,0.27449156
107694.3665,-9.880579966,1.288070837,0.403541827
107704.1321,-9.845428733,1.361450226,0.072511301
107713.8977,-10.03573988,1.36544331,0.272165492
107723.6633,-9.881966923,1.445296923,0.264846131
107733.429,-10.03703814,1.442846797,0.14233987
107743.1946,-9.804677258,1.486030099,0.301504966
107752.9602,-9.807140719,1.521103177,0.055158832
107762.7258,-9.805036093,1.44531243,0.265621487
107772.4915,-9.958986455,1.525104014,0.255200701
107782.2571,-10.07586239,1.402121374,0.106068712
107792.0227,-9.921597544,1.402958759,0.14793794
107801.7883,-9.844622363,1.363062967,0.153148333
107811.554,-9.768675304,1.52111093,0.05554651
107821.3196,-9.805394928,1.40459476,0.229738007
107831.0852,-9.884474735,1.520281299,0.014064959
107840.8508,-9.805886814,1.483610988,0.180549417
107850.6165,-9.61132206,1.288125111,0.406255573
107860.3821,-9.807810007,1.759764602,-0.011769905
107870.1477,-9.73029859,1.600941282,0.047064114
107879.9133,-10.22999418,1.281550092,0.077504594
107889.679,-10.11155389,1.087661449,0.383072426
107899.4446,-8.651069604,1.8055531,0.277655013
107909.2102,-9.423776759,2.318600327,-0.06998364
107918.9758,-10.30593721,1.483510192,0.175509603
107928.7415,-9.843815992,1.364675707,0.233785366
107938.5071,-9.692772596,1.719070193,-0.046490351
107948.2727,-10.38027153,1.32868771,0.434385492
107958.0383,-10.49862715,1.082745691,0.137284548
107967.804,-10.53714498,0.402633109,0.131655463
107977.5696,-10.1533859,0.480920503,0.046025137
107987.3352,-9.768727718,0.841006102,0.050305103
107997.1008,-9.729141448,0.923255565,0.162778256
108006.8665,-9.417249192,1.171655463,0.582773139
108016.6321,-10.66699139,2.133709536,-1.314523195
108026.3977,-10.09741016,-0.00405108,1.797445977
108036.1633,-9.72402906,1.413480341,0.674017042
108045.929,-9.613648438,1.563472355,0.173617734
108055.6946,-9.728552798,1.484432866,0.22164329
108065.4602,-9.689998682,1.404618021,0.230901041
108075.2258,-9.651355865,1.244980577,0.249028867
108084.9915,-9.496687834,1.246624332,0.331216611
108094.7571,-9.496195948,1.167608104,0.380405201
108104.5227,-9.418547448,1.24905895,0.452947516
108114.2883,-9.649694742,1.568302823,0.415141154
108124.054,-9.880620285,1.687990199,0.399509975
108133.8196,-9.956119808,1.490837307,0.541865352
108143.5852,-9.803467703,1.48844921,0.422460515
108153.3508,-9.991988711,1.336022578,0.801128918
108163.1165,-10.48563653,1.028726943,1.436347142
108172.8821,-10.40843556,1.149282718,1.464135904
108182.6477,-10.14939437,0.888903569,0.445178448
108192.4133,-9.425441914,1.635270018,-0.236499112
108202.179,-9.386843448,1.515543874,-0.222806324
108211.9446,-9.617946392,1.794876447,-0.25617765
108221.7102,-9.924012623,1.758128601,-0.093569972
108231.4758,-9.690623619,1.603368147,0.168407341
108241.2415,-9.614539477,2.001690276,0.084513813
108251.0071,-10.07599544,1.521855272,0.092763602
108260.7727,-9.613249285,1.204270661,0.213533065
108270.5383,-9.882732975,1.043764819,0.18824095
108280.304,-9.653637893,1.480416521,0.020826064
108290.0696,-9.344700984,1.842905724,0.145286223
108299.8352,-9.769659076,1.679143387,-0.04283067
108309.6008,-10.07644298,1.560960201,0.048010049
108319.3665,-9.95947834,1.604120242,0.206012111
108329.1321,-9.692603258,0.839408869,-0.029556574
108338.8977,-9.805709412,1.323965791,0.198289564
108348.6633,-9.615660332,1.919448567,-0.027571662
108358.429,-9.654125747,1.919440813,-0.02795934
108368.1946,-10.11347305,1.723823126,0.191156289
108377.9602,-10.11365449,1.523460259,0.173012956
108387.7258,-10.11482372,1.121121785,0.056089259
108397.4915,-9.805261877,1.284860862,0.243043118
108407.2571,-9.921464493,1.283224861,0.161243051
108417.0227,-10.00009676,1.359806471,-0.009676444
108426.7883,-9.652609771,1.282472766,0.123638281
108436.554,-9.729762353,1.482013755,0.100687741
108446.3196,-9.690579269,1.563456848,0.172842378
108456.0852,-9.999108961,1.561782078,0.089103921
108465.8508,-9.960421794,1.362233336,0.111666783
108475.6165,-9.804858691,1.285667233,0.283361634
108485.3821,-9.537971513,1.60098005,0.049002504
108495.1477,-9.806201298,1.402982019,0.149100975
108504.9133,-10.11508983,1.360589581,0.029479038
108514.679,-9.998439673,1.323120653,0.156032658
108524.4446,-9.882684593,1.363861583,0.193079172
108534.2102,-9.805890845,1.123602925,0.180146232
108543.9758,-9.730032487,1.361473487,0.073674335
108553.7415,-9.961272514,1.400531894,0.026594714
108563.5071,-9.732004063,1.317530336,-0.12348321
108573.2727,-9.422889752,1.520374342,0.018717096
108583.0383,-9.808124491,1.679135633,-0.043218348
108592.804,-10.0384251,1.600072883,0.003644174
108602.5696,-10.03677204,1.203379002,0.16895009
108612.3352,-9.998887209,1.362225582,0.111279105
108622.1008,-9.653460492,1.320771324,0.038566212
108631.8665,-9.961542648,1.279991626,-0.000418692
108641.6321,-9.846146403,1.280014887,0.000744342
108651.3977,-10.03900972,1.398903646,-0.054817675
108661.1633,-9.730794507,1.319949447,-0.002527661
108670.929,-10.38403728,1.081156211,0.057810549
108680.6946,-10.03592132,1.165080443,0.25402216
108690.4602,-9.074995542,1.80385507,0.192753522
108700.2258,-10.1908111,1.362993185,0.149659231
108709.9915,-9.960736278,1.281604367,0.08021834
108719.7571,-9.727835128,1.565868205,0.293410249
108729.5227,-9.502280012,1.915439976,-0.22800121
108739.2883,-9.766522295,1.765416948,0.270847387
108749.054,-10.42478069,1.676592465,-0.170376746
108758.8196,-9.676616966,0.271381452,1.569072597
108768.5852,-10.03153063,1.213861816,0.693090802
108778.3508,-10.11052174,1.249725757,0.486287828
108788.1165,-9.880354183,1.448522404,0.426120196
108797.8821,-9.843815992,1.364675707,0.233785366
108807.6477,-9.804096671,1.327191273,0.35956363
108817.4133,-9.921734627,1.162684593,0.134229645
108827.179,-9.651311515,1.205069278,0.253463903
108836.9446,-9.804411156,1.246562304,0.328115187
108846.7102,-9.691788824,1.561037737,0.051886829
108856.4758,-9.768094717,1.362272103,0.113605173
108866.2415,-9.691341288,1.521932808,0.096640382
108876.0071,-9.651980802,1.443730703,0.186535166
108885.7727,-9.653504842,1.360682623,0.034131175
108895.5383,-9.652206586,1.283279136,0.163956797
108905.304,-9.767377048,1.443707443,0.185372132
108915.0696,-9.880983152,1.287264466,0.36322331
108924.8352,-9.996246346,1.167507308,0.375365387
108934.6008,-10.11092895,0.888911323,0.445566126
108944.3665,-9.953527327,0.976022268,0.801113411
108954.1321,-10.18920239,1.006210602,0.310530111
108963.8977,-10.10819536,0.974378513,0.718925667
108973.6633,-9.91886798,1.128417886,0.420894296
108983.429,-9.954107914,1.134861095,0.743054748
108993.1946,-10.18516651,1.374282369,0.714118459
109002.9602,-10.56762733,1.218591488,0.929574407
109012.7258,-10.22672839,0.888081692,0.404084576
109022.4915,-9.732451598,1.356635265,-0.168236763
109032.2571,-9.502332426,1.235335148,-0.233242617
109042.0227,-9.615890148,1.398988936,-0.050553217
109051.7883,-9.998484024,1.363031952,0.151597621
109061.554,-10.23088926,1.35975995,-0.012002512
109071.3196,-10.1141504,1.242468424,0.123421181
109081.0852,-10.03847348,1.279976119,-0.001194048
109090.8508,-9.999201693,1.281596613,0.079830662
109100.6165,-9.845787568,1.320732556,0.036627821
109110.3821,-9.616023199,1.518722833,-0.063858327
109120.1477,-9.730346972,1.280844518,0.042225892
109129.9133,-9.885015003,1.279200763,-0.039961852
109139.679,-9.653952378,1.399787552,-0.010622378
109149.4446,-9.691478371,1.281658642,0.082932087
109159.2102,-9.654891799,1.51790871,-0.104564521
109168.9758,-9.767824583,1.482812372,0.140618579
109178.7415,-9.654399913,1.438892481,-0.055375931
109188.5071,-9.499864933,1.560270134,0.013506703
109198.2727,-9.65350081,1.720690687,0.03453436
109208.0383,-9.578630256,1.756585642,-0.170717902
109217.804,-9.501340591,1.797318819,-0.134059067
109227.5696,-9.653815295,1.640061718,0.003085917
109237.3352,-9.577553752,1.878738651,-0.063067464
109247.1008,-9.733253937,1.715030588,-0.24847061
109256.8665,-9.69609081,1.432433765,-0.37831174
109266.6321,-9.692413761,1.759787863,-0.010606871
109276.3977,-9.691026804,1.602561776,0.128088825
109286.1633,-9.653903995,1.719884317,-0.005784156
109295.929,-9.80794709,1.519490436,-0.025478201
109305.6946,-9.882099974,1.56503082,0.25154102
109315.4602,-9.691788824,1.561037737,0.051886829
109325.2258,-9.576795763,1.560254627,0.012731347
109334.9915,-9.76840517,1.641651198,0.082559916
109344.7571,-9.76916719,1.600127158,0.00635792
109354.5227,-9.729984105,1.681570251,0.078512557
109364.2883,-9.963643243,1.715790437,-0.210478162
109374.054,-10.0424126,1.552097881,-0.395105952
109383.8196,-9.655157901,1.757376505,-0.131174742
109393.5852,-9.80947113,1.436442356,-0.177882192
109403.3508,-9.885732673,1.197765424,-0.111728811
109413.1165,-9.809338079,1.316708458,-0.164577082
109422.8821,-9.187888008,1.368839369,0.441968474
109432.6477,-9.728951951,1.843634559,0.181727959
109442.4133,-10.43901313,2.848127593,-1.59362037
109452.179,-9.525037333,0.50684841,1.342420507
109461.9446,-10.56928039,1.61528537,0.76426849
109471.7102,-9.808305924,1.478772766,-0.06136168
109481.4758,-9.921819296,1.602515255,0.125762757
109491.2415,-9.840771945,1.170763803,0.538190164
109501.0071,-9.72627077,1.248996922,0.449846092
109510.7727,-9.768364852,1.241731835,0.086591767
109520.5383,-9.652162236,1.243367837,0.168391834
109530.304,-9.766840812,1.324779915,0.238995759
109540.0696,-9.957555147,1.327966629,0.398331434
109549.8352,-10.07680181,1.520242531,0.012126569
109559.6008,-9.765183721,1.288094097,0.404704861
109569.3665,-10.03484481,1.287233452,0.361672598
109579.1321,-9.879773596,1.289683577,0.484178859
109588.8977,-10.03251843,1.011886209,0.594310437
109598.6633,-9.99270638,1.254587239,0.729361959
109608.429,-10.07331023,1.287225698,0.36128492
109618.1946,-10.14988222,1.327927861,0.396393044
109627.9602,-9.959167888,1.324741147,0.237057369
109637.7258,-10.11222318,1.326322874,0.316143689
109647.4915,-9.766437626,1.325586286,0.279314275
109657.2571,-9.766481977,1.365497585,0.274879238
109667.0227,-9.880084049,1.569062672,0.453133602
109676.7883,-9.804540175,1.726304265,0.315213262
109686.554,-9.69080102,1.763013344,0.150667194
109696.3196,-9.883801416,1.641627938,0.081396882
109706.0852,-9.69151869,1.681578005,0.078900235
109715.8508,-9.80722942,1.600925775,0.046288758
109725.6165,-9.729177735,1.683182992,0.159149589
109735.3821,-9.882813612,1.843603545,0.180177246
109745.1477,-10.0747375,1.844371147,0.218557372
109754.9133,-9.844573981,1.683159731,0.157986555
109764.679,-9.767824583,1.482812372,0.140618579
109774.4446,-9.691655773,1.441303839,0.065191939
109784.2102,-9.538197297,1.440528483,0.026424135
109793.9758,-9.730520341,1.800497779,0.02488893
109803.7415,-9.65265009,1.682392129,0.119606429
109813.5071,-9.61463221,1.721504811,0.075240554
109823.2727,-9.921774945,1.562603956,0.130197793
109833.0383,-9.808705078,1.83797446,-0.101277011
109842.804,-9.883934467,1.761361835,0.068091771
109852.5696,-9.80803579,1.599313035,-0.034348274
109862.3352,-9.808975212,1.717434192,-0.128290417
109872.1008,-9.88259186,1.644047049,0.20235243
109881.8665,-9.651529235,1.764633838,0.231691905
109891.6321,-9.654037047,1.839618215,-0.019089267
109901.3977,-9.614628178,2.081512875,0.075643739
109911.1633,-9.576836082,1.96017399,0.008699495
109920.929,-9.806241616,1.802901382,0.145069123
109930.6946,-9.769433292,1.839594954,-0.020252301
109940.4602,-9.806511751,1.682361114,0.118055717
109950.2258,-10.03900568,1.75891171,-0.05441449
109959.9915,-9.807451172,1.800482271,0.024113574
109969.7571,-9.57509029,1.843665573,0.183278671
109979.5227,-9.728681817,1.964174827,0.208741364
109989.2883,-9.846049638,1.920208416,0.010420786
109999.054,-9.882095943,1.925038884,0.251944205
110008.8196,-9.95867197,1.605732983,0.286649144
110018.5852,-9.653053275,1.681585758,0.079287913
110028.3508,-9.768223737,1.842014065,0.100703248
110038.1165,-9.76683678,1.684787979,0.239398944
110047.8821,-9.655424003,1.996844301,-0.157784963
110057.6477,-9.732350802,2.356836857,-0.158157134
110067.4133,-9.1535754,2.560541509,0.027075434
110077.179,-9.38347282,2.482285129,0.114256472
110086.9446,-10.2301232,1.761292053,0.064602669
110096.7102,-10.53781024,1.001302598,0.065129911
110106.4758,-10.73026633,1.481005792,0.050289595
110116.2415,-10.23621533,1.789107798,-0.544610112
110126.0071,-8.796924007,0.781536601,1.076830034
110135.7727,-10.3181255,1.179133617,-1.043319144
110145.5383,-11.16686035,2.333971606,-1.301419677
110155.304,-8.416217038,0.333719771,0.68598854
110165.0696,-9.306590372,2.162203872,0.110193606
110174.8352,-10.11109829,1.768572647,0.428632349
110184.6008,-9.611313996,2.008141239,0.407061943
110194.3665,-9.725323285,1.850891892,0.544594605
110204.1321,-9.806015833,1.96335295,0.167647492
110213.8977,-9.806959286,1.721466043,0.073302164
110223.6633,-9.805572329,1.564239957,0.21199786
110233.429,-9.765853008,1.526755522,0.337776124
110243.1946,-9.805257845,1.644868926,0.243446303
110252.9602,-9.766792429,1.64487668,0.243833981
110262.7258,-10.11244493,1.52587937,0.293968505
110272.4915,-9.99825824,1.52348352,0.17417599
110282.2571,-9.957285013,1.448506897,0.42534484
110292.0227,-9.92132741,1.523499027,0.174951346
110301.7883,-9.919537267,1.367079311,0.353965559
110311.554,-9.844170795,1.683966101,0.198305072
110321.3196,-9.727746428,1.486045606,0.302280322
110331.0852,-9.805080443,1.485223729,0.26118645
110340.8508,-9.648932722,1.609826863,0.491343149
110350.6165,-9.725819202,1.569900057,0.49500283
110360.3821,-9.649827793,1.688036721,0.401836043
110370.1477,-10.14701155,1.653669218,0.683460879
110379.9133,-10.06936708,1.375112,0.755600009
110389.679,-9.766481977,1.365497585,0.274879238
110399.4446,-9.729089034,1.603360393,0.168019663
110409.2102,-9.57737635,1.719093454,-0.045327317
110418.9758,-9.729177735,1.683182992,0.159149589
110428.7415,-9.38558551,1.838059749,-0.097012553
110438.5071,-9.729443837,1.922650787,0.132539369
110448.2727,-9.730383259,2.040771945,0.038597226
110458.0383,-9.653766912,1.960158483,0.007924139
110467.804,-9.769703426,1.719054686,-0.047265707
110477.5696,-9.843320075,1.645667543,0.283377141
110487.3352,-9.652517038,1.562658231,0.13291154
110497.1008,-9.730927558,1.439683345,-0.015832771
110506.8665,-9.920073504,1.486006839,0.300341932
110516.6321,-9.691607391,1.761400603,0.070030161
110526.3977,-9.88335388,1.602523009,0.126150435
110536.1633,-9.730790476,1.67995751,-0.002124476
110545.929,-9.80570538,1.683973855,0.19869275
110555.6946,-9.7288189,1.723900661,0.195033069
110565.4602,-9.729984105,1.681570251,0.078512557
110575.2258,-9.691966225,1.720682934,0.034146682
110584.9915,-9.654666015,1.678360277,-0.081986152
110594.7571,-9.728641499,1.564255464,0.212773216
110604.5227,-9.69151869,1.681578005,0.078900235
110614.2883,-9.769388942,1.799683655,-0.015817264
110624.054,-9.653903995,1.719884317,-0.005784156
110633.8196,-9.537701379,1.721520318,0.07601591
110643.5852,-9.730879176,1.759780109,-0.010994549
110653.3508,-9.960643546,1.561789832,0.089491599
110663.1165,-9.996197964,1.487604072,0.380203609
110672.8821,-9.651263133,1.525166043,0.258302125
110682.6477,-9.766792429,1.64487668,0.243833981
110692.4133,-9.806108565,1.683167485,0.158374233
110702.179,-9.767868934,1.522723671,0.136183542
110711.9446,-9.768090686,1.722280167,0.114008358
110721.7102,-9.61391454,1.80294015,0.147007513
110731.4758,-10.26725004,1.283961449,0.198072465
110741.2415,-9.996379397,1.287241206,0.362060276
110751.0071,-9.844844115,1.562619463,0.130973149
110760.7727,-9.652113853,1.563464601,0.173230056
110770.5383,-10.00116924,1.597661526,-0.116923697
110780.304,-10.11571879,1.199331643,-0.033417847
110790.0696,-10.11674692,1.397275399,-0.136230064
110799.8352,-9.498655377,1.562689245,0.134462252
110809.6008,-9.499864933,1.560270134,0.013506703
110819.3665,-10.80540702,1.324570569,0.228528452
110829.1321,-9.189230614,1.486154156,0.307707815
110838.8977,-8.958119606,1.92683771,0.341885511
110848.6633,-10.11284408,1.885081063,0.254053174
110858.429,-9.921549161,1.723055523,0.152776162
110868.1946,-9.994585223,1.490829553,0.541477674
110877.9602,-9.420692393,1.72476906,0.23845301
110887.7258,-9.964848767,2.073379389,-0.331030526
110897.4915,-9.638276539,1.111139231,1.556961535
110907.2571,-9.644590418,1.338511471,0.92557357
110917.0227,-9.955357788,1.532361347,0.618067347
110926.7883,-9.767554449,1.60335264,0.167631985
110936.554,-9.65014631,1.247399688,0.369984415
110946.3196,-9.687087685,1.330440015,0.522000729
110956.0852,-9.880579966,1.288070837,0.403541827
110965.8508,-9.8031129,1.169158816,0.457940809
110975.6165,-9.764824886,1.328811767,0.44058834
110985.3821,-9.687668272,1.489278841,0.463942065
110995.1477,-9.765361122,1.447739294,0.386964714
111004.9133,-9.766389244,1.64568305,0.284152497
111014.679,-9.763252464,1.731956611,0.597830554
111024.4446,-10.7129334,1.155671652,1.78358261
111034.2102,-10.37042172,0.828387337,1.419366844
111043.9758,-9.921867678,1.282418491,0.120924535
111053.7415,-9.848654214,1.354999263,-0.250036829
111063.5071,-9.809692881,1.635998852,-0.200057376
111073.2727,-9.846948741,1.63841021,-0.079489506
111083.0383,-9.96100238,1.521072162,0.05360812
111092.804,-9.923968272,1.718217301,-0.089134935
111102.5696,-9.960643546,1.561789832,0.089491599
111112.3352,-9.652875873,1.521940561,0.09702806
111122.1008,-9.923794903,1.198564041,-0.071797973
111131.8665,-9.73110496,1.599328542,-0.033572918
111141.6321,-9.653008924,1.641674459,0.08372295
111151.3977,-9.690938103,1.522739178,0.136958898
111161.1633,-9.614095974,1.602577284,0.128864181
111170.929,-9.959030805,1.565015313,0.250765664
111180.6946,-9.91980337,1.606547107,0.327355338
111190.4602,-9.767155296,1.244150946,0.207547316
111200.2258,-10.03672769,1.163467703,0.173385127
111209.9915,-9.921819296,1.602515255,0.125762757
111219.7571,-9.806600451,1.762183713,0.109185644
111229.5227,-9.727298892,1.446940678,0.347033875
111239.2883,-9.727790778,1.525956906,0.297845285
111249.054,-9.805483628,1.484417359,0.220867934
111258.8196,-9.842920921,1.286465849,0.323292472
111268.5852,-9.921105658,1.323942531,0.19712653
111278.3508,-9.844799764,1.522708164,0.135408186
111288.1165,-9.805036093,1.44531243,0.265621487
111297.8821,-9.883176479,1.442877812,0.143890582
111307.6477,-9.919492917,1.327168012,0.358400595
111317.4133,-9.614007273,1.522754685,0.137734254
111327.179,-10.03502221,1.446878649,0.343932451
111336.9446,-10.03654625,1.363830569,0.191528459
111346.7102,-10.03627612,1.484370837,0.218541865
111356.4758,-9.727524676,1.28648911,0.324455506
111366.2415,-9.807499554,1.480385507,0.019275352
111376.0071,-9.879015608,0.971199553,0.55997767
111385.7727,-9.96091368,1.441249564,0.062478193
111395.5383,-10.23053445,1.040469556,0.023477782
111405.304,-9.571155203,1.211535748,0.57678739
111415.0696,-8.192573019,2.039469346,-0.026532685
111424.8352,-9.885986679,2.51725741,-0.137129477
111434.6008,-10.38479527,1.399640235,-0.017988261
111444.3665,-9.918464795,1.129224256,0.461212812
111454.1321,-9.537568328,1.60178642,0.089321021
111463.8977,-9.537923131,1.921076815,0.053840726
111473.6633,-9.69093004,2.242755305,0.137765269
111483.429,-10.38313414,1.722962481,0.148124026
111493.1946,-10.84217503,0.887957635,0.397881727
111502.9602,-10.38332364,0.802583486,0.129174323
111512.7258,-10.03350624,0.809910601,0.495530072
111522.4915,-9.458625604,1.245825715,0.291285773
111532.2571,-9.732137114,1.437264234,-0.13678832
111542.0227,-9.535693517,1.005536042,0.276802121
111551.7883,-9.575408806,1.403028541,0.151427043
111561.554,-9.766393276,1.285674986,0.283749312
111571.3196,-10.11504547,1.320678282,0.033914075
111581.0852,-9.612305831,1.446157568,0.307878393
111590.8508,-9.769344592,1.759772355,-0.011382227
111600.6165,-9.760571282,1.137318974,0.865948687
111610.3821,-9.806870585,1.641643445,0.082172238
111620.1477,-9.765046638,1.528368263,0.418413156
111629.9133,-9.609169051,1.532431129,0.62155645
111639.679,-9.765764307,1.446932924,0.346646197
111649.4446,-9.725686151,1.450166159,0.50830794
111659.2102,-9.420873826,1.524406194,0.220309677
111668.9758,-9.843053973,1.406199747,0.309987362
111678.7415,-9.920029153,1.446095539,0.304776969
111688.5071,-9.727790778,1.525956906,0.297845285
111698.2727,-9.804544207,1.366296202,0.314810077
111708.0383,-9.611813946,1.36714134,0.357066983
111717.804,-9.997633303,1.324733394,0.236669691
111727.5696,-9.802302497,1.530779621,0.538981027
111737.3352,-9.841485582,1.449336528,0.46682639
111747.1008,-9.879950997,1.449328774,0.466438712
111756.8665,-9.915146581,1.415860684,0.793034201
111766.6321,-10.18463027,1.255354842,0.767742086
111776.3977,-10.33952005,1.453267583,0.663379157
111786.1633,-10.64598947,1.415713366,0.785668318
111795.929,-9.764873268,1.008715002,0.435750118
111805.6946,-9.729540602,1.282457258,0.122862925
111815.4602,-9.233114838,1.635308786,-0.234560722
111825.2258,-10.03918308,1.918556907,-0.072154637
111834.9915,-10.15252309,1.522646135,0.132306762
111844.7571,-9.95938964,1.524297644,0.214882185
111854.5227,-9.921597544,1.402958759,0.14793794
111864.2883,-9.921686244,1.482781357,0.139067867
111874.054,-9.613648438,1.563472355,0.173617734
111883.8196,-9.613692788,1.603383654,0.169182697
111893.5852,-9.767284315,1.723892908,0.194645391
111903.3508,-9.730117156,1.801304149,0.065207447
111913.1165,-9.805838431,1.803707753,0.185387639
111922.8821,-9.652561389,1.60256953,0.128476503
111932.6477,-9.766211843,1.486037853,0.301892644
111942.4133,-9.805439278,1.444506059,0.22530297
111952.179,-9.805975514,1.563433587,0.171679344
111961.9446,-9.691429989,1.601755406,0.087770309
111971.7102,-9.767510099,1.56344134,0.172067022
111981.4758,-9.690805052,1.40300528,0.150264009
111991.2415,-9.689369713,1.565875959,0.293797927
112001.0071,-9.961853101,1.559370721,-0.03146395
112010.7727,-9.920029153,1.446095539,0.304776969
112020.5383,-9.729310786,1.80291689,0.145844479
112030.304,-9.72958092,1.682376621,0.118831073
112040.0696,-9.960732246,1.641612431,0.080621525
112049.8352,-9.883442581,1.682345607,0.117280361
112059.6008,-9.576525629,1.680794895,0.039744753
112069.3665,-9.885635908,1.837958953,-0.102052368
112079.1321,-9.576840114,1.600165926,0.00829631
112088.8977,-9.808660727,1.798063161,-0.096841975
112098.6633,-9.385319408,1.598591953,-0.070402332
112108.429,-9.539088336,1.878746404,-0.062679786
112118.1946,-9.576211145,1.761423864,0.071193195
112127.9602,-9.847888163,1.756531367,-0.173431648
112137.7258,-9.883668365,1.52189404,0.094701992
112147.4915,-9.538060214,1.680802649,0.040132431
112157.2571,-9.806152916,1.723078784,0.153939197
112167.0227,-9.576122444,1.681601265,0.080063269
112176.7883,-9.269963481,1.998534577,-0.07327115
112186.554,-9.695139293,2.394336799,-0.283160041
112196.3196,-9.386657983,2.075914804,-0.204259806
112206.0852,-9.501961496,2.356077008,-0.196149582
112215.8508,-9.962832841,2.077411241,-0.129437944
112225.6165,-10.57797306,1.437900026,-0.104998721
112235.3821,-10.50024393,0.719512146,-0.024392702
112245.1477,-10.3076951,0.519994417,-0.000279128
112254.9133,-9.38375505,1.28172067,0.086033511
112264.679,-9.150495065,1.606702178,0.335108899
112274.4446,-9.23078846,1.359961542,-0.001922883
112284.2102,-9.771537919,1.915385701,-0.230714956
112293.9758,-9.966058322,2.070960279,-0.451986075
112303.7415,-9.780537012,2.377387515,-1.130624239
112313.5071,-10.21441108,0.712716305,1.635815248
112323.2727,-9.916263404,1.693627038,0.681351911
112333.0383,-9.346269374,1.799768944,-0.011552806
112342.804,-9.763925783,1.610609973,0.530498631
112352.5696,-9.917964845,1.770224155,0.511207772
112362.3352,-9.88335388,1.602523009,0.126150435
112372.1008,-9.766344894,1.605771751,0.288587534
112381.8665,-9.61467656,1.76141611,0.070805517
112391.6321,-9.766477945,1.725505648,0.275282423
112401.3977,-9.804451474,1.646481667,0.324083335
112411.1633,-9.843811961,1.724683771,0.234188551
112420.929,-9.767820552,1.842820435,0.141021764
112430.6946,-9.843993394,1.524320904,0.216045219
112440.4602,-9.807721306,1.679942003,-0.002899832
112450.2258,-9.959837175,1.563402573,0.170128632
112459.9915,-9.919936421,1.726281005,0.314050228
112469.7571,-9.727879479,1.605779504,0.288975212
112479.5227,-9.918101928,1.52994999,0.497499477
112489.2883,-10.14764051,1.49241128,0.620563994
112499.054,-9.84215487,1.687997953,0.399897653
112508.8196,-9.614720911,1.80132741,0.066370481
112518.5852,-9.46162127,1.759834384,-0.008280803
112528.3508,-9.806241616,1.802901382,0.145069123
112538.1165,-9.998971878,1.802056244,0.102812217
112547.8821,-9.846319772,1.799668148,-0.01659262
112557.6477,-9.885144022,1.758942724,-0.052863778
112567.4133,-9.575989393,1.561867368,0.093368379
112577.179,-9.768489839,2.081481861,0.074093027
112586.9446,-9.692635513,1.959344359,-0.032782055
112596.7102,-9.386657983,2.075914804,-0.204259806
112606.4758,-9.92294015,1.520273546,0.013677281
112616.2415,-9.617543207,1.795682817,-0.215859133
112626.0071,-9.423555008,2.119043831,-0.047808456
112635.7727,-9.538548068,2.119826941,-0.008652974
112645.5383,-9.847747048,2.356813597,-0.159320168
112655.304,-10.07719693,2.239452288,-0.027385577
112665.0696,-9.192818962,1.07897746,-0.05112698
112674.8352,-9.731016259,1.519505943,-0.024702845
112684.6008,-9.885410125,1.99841052,-0.079473998
112694.3665,-9.845646453,1.921014786,0.050739302
112704.1321,-9.924056973,1.7980399,-0.098005009
112713.8977,-9.84779543,2.036716832,-0.16415839
112723.6633,-9.616599753,2.037569724,-0.121513805
112733.429,-9.692187977,1.92023943,0.011971498
112743.1946,-9.923968272,1.718217301,-0.089134935
112752.9602,-9.656230374,1.99523156,-0.238421995
112762.7258,-9.654307181,1.719077947,-0.046102673
112772.4915,-9.695098974,1.994417436,-0.27912819
112782.2571,-9.732443535,2.076651392,-0.167430392
112792.0227,-9.424405728,2.157342389,-0.132880525
112801.7883,-9.461750289,2.239576345,-0.021182728
112811.554,-9.732310484,1.956917494,-0.154125282
112821.3196,-9.96019601,1.522684903,0.134245152
112831.0852,-10.07832182,1.797202515,-0.139874237
112840.8508,-10.15386569,1.639960922,-0.001953897
112850.6165,-10.07622122,1.361403705,0.070185233
112860.3821,-9.961990184,1.319096555,-0.045172245
112870.1477,-9.923524769,1.319104309,-0.044784567
112879.9133,-9.616648136,1.717472959,-0.126352027
112889.679,-9.811664457,1.592055702,-0.397214921
112899.4446,-10.11535593,1.600057376,0.002868818
112909.2102,-9.616378002,1.838013228,-0.099338621
112918.9758,-9.423510657,2.079132532,-0.043373419
112928.7415,-9.616688454,2.117392322,-0.130383879
112938.5071,-9.925802765,1.914548316,-0.272584184
112948.2727,-9.846948741,1.63841021,-0.079489506
112958.0383,-10.00174982,1.756500353,-0.174982361
112967.804,-9.692458111,1.799699162,-0.015041908
112977.5696,-9.50053422,1.798931559,-0.053422034
112987.3352,-9.808434944,1.958514728,-0.074263606
112997.1008,-9.616825537,1.877118157,-0.144092174
113006.8665,-9.500171354,2.199657293,-0.017135369
113016.6321,-9.538773852,1.959375373,-0.031231343
113026.3977,-9.93256418,2.181025486,-0.948725702
113036.1633,-9.524396269,1.748130539,1.406526948
113045.929,-9.800463973,1.694456669,0.722833461
113055.6946,-10.04267467,2.15157374,-0.421312988
113065.4602,-9.45866189,2.005753142,0.287657107
113075.2258,-9.610511657,1.649745916,0.487295791
113084.9915,-9.613422654,1.723923922,0.196196103
113094.7571,-9.844977166,1.682353361,0.117668039
113104.5227,-9.922041047,1.802071751,0.103587573
113114.2883,-9.65273879,1.762214727,0.110736356
113124.054,-9.691788824,1.561037737,0.051886829
113133.8196,-9.806870585,1.641643445,0.082172238
113143.5852,-9.574687105,1.844471944,0.223597187
113153.3508,-9.575312042,2.04322207,0.161103487
113163.1165,-9.691917843,2.040779698,0.038984904
113172.8821,-9.691740442,1.881134501,0.056725051
113182.6477,-9.80570538,1.683973855,0.19869275
113192.4133,-9.611003543,1.728762144,0.438107201
113202.179,-10.10487311,1.621023005,1.051150241
113211.9446,-10.4149712,1.576211455,0.810572756
113221.7102,-9.543257271,1.630408535,-0.479573244
113231.4758,-9.658786568,1.750119172,-0.494041389
113241.2415,-9.964493964,1.754088995,-0.295550231
113251.0071,-9.807632605,1.600119405,0.005970242
113260.7727,-9.734237709,1.873063044,-0.34684779
113270.5383,-9.695998077,1.71261923,-0.369038481
113280.304,-9.616466702,1.917835826,-0.108208695
113290.0696,-9.733116854,1.955304754,-0.234762315
113299.8352,-9.691966225,1.720682934,0.034146682
113309.6008,-9.655379653,1.956933001,-0.153349926
113319.3665,-9.999375063,1.801249874,0.0624937
113329.1321,-9.653367759,1.600956789,0.04783947
113338.8977,-9.731729897,1.798078668,-0.096066619
113348.6633,-9.732491917,1.756554628,-0.172268614
113358.429,-9.577690835,1.638464485,-0.076775759
113368.1946,-9.57580796,1.762230234,0.111511712
113377.9602,-9.847347895,1.997611903,-0.119404837
113387.7258,-9.809196964,1.916990688,-0.150465601
113397.4915,-9.769925178,1.918611182,-0.069440891
113407.2571,-9.768268087,1.881925364,0.096268211
113417.0227,-9.692054926,1.800505532,0.025276608
113426.7883,-9.768759973,1.960941592,0.047079621
113436.554,-9.691740442,1.881134501,0.056725051
113446.3196,-9.807451172,1.800482271,0.024113574
113456.0852,-9.809108263,1.837168089,-0.141595528
113465.8508,-9.999959681,1.600080637,0.004031852
113475.6165,-9.576928815,1.679988525,-0.000573764
113485.3821,-9.616289301,1.758190629,-0.090468548
113495.1477,-9.809241314,1.956901987,-0.154900638
113504.9133,-9.807987408,1.919409799,-0.029510052
113514.679,-9.731012227,1.879514007,-0.02429966
113524.4446,-9.883978817,1.801273135,0.063656734
113534.2102,-9.923339304,1.879475239,-0.02623805
113543.9758,-9.845469052,1.761369589,0.068479449
113553.7415,-9.731995999,2.037546463,-0.122676839
113563.5071,-10.03936452,1.718194041,-0.090297969
113573.2727,-9.886176176,1.596878416,-0.156079179
113583.0383,-9.656589209,1.954513891,-0.274305475
113592.804,-9.731415413,1.878707636,-0.064618176
113602.5696,-9.539624573,1.997673932,-0.116303412
113612.3352,-9.464483884,2.154109155,-0.294542269
113622.1008,-9.501022074,2.237955851,-0.102207439
113631.8665,-9.770457383,2.397546773,-0.122661332
113641.6321,-10.15417615,1.919340017,-0.032999155
113651.3977,-10.53865693,1.399609221,-0.019538973
113661.1633,-10.15606708,1.07555814,-0.222092996
113670.929,-9.809023594,1.397337427,-0.133128639
113680.6946,-10.04120304,1.554516992,-0.274150404
113690.4602,-9.042755305,1.951412466,-0.429376691
113700.2258,-9.43076799,2.064617866,-0.769106712
113709.9915,-9.653758849,2.68017461,0.008730509
113719.7571,-10.12171819,1.507332853,-0.633357369
113729.5227,-9.949495476,0.984085971,1.204298574
113739.2883,-9.112694905,2.20537942,0.268971025
113749.054,-9.345543641,2.60122041,0.061020524
113758.8196,-9.691155823,2.082303738,0.1151869
113768.5852,-9.806729471,2.241925674,0.096283718
113778.3508,-9.846049638,1.920208416,0.010420786
113788.1165,-9.730834826,1.71986881,-0.006559512
113797.8821,-9.728552798,1.484432866,0.22164329
113807.6477,-9.845114249,1.442079195,0.103959744
113817.4133,-10.15256744,1.562557435,0.127871725
113827.179,-9.692905647,1.838804091,-0.059795461
113836.9446,-9.72810123,1.805336001,0.266800028
113846.7102,-9.652916192,1.921859924,0.092996209
113856.4758,-9.73038729,1.680763881,0.038194041
113866.2415,-9.807628573,1.960127469,0.006373427
113876.0071,-9.728548766,1.844440929,0.222046475
113885.7727,-9.61310817,1.804552891,0.227644546
113895.5383,-9.651617936,1.844456437,0.222821831
113905.304,-9.919400185,1.607353477,0.367673854
113915.0696,-10.07021377,1.773418623,0.670931125
113924.8352,-10.03403441,1.648854256,0.442712816
113934.6008,-10.11177161,1.647226009,0.361300427
113944.3665,-9.541374396,1.754174285,-0.291285773
113954.1321,-9.733028153,1.875482155,-0.225892241
113963.8977,-9.771489537,2.235482465,-0.225876734
113973.6633,-9.655871539,2.03594923,-0.202538516
113983.429,-10.11571073,1.91934777,-0.032611477
113993.1946,-9.885591558,1.798047653,-0.097617331
114002.9602,-9.538955285,1.759012506,-0.049374675
114012.7258,-9.693308832,1.83799772,-0.100113977
114022.4915,-9.769118808,1.920223923,0.011196142
114032.2571,-9.653408078,2.000876152,0.043807619
114042.0227,-9.730875144,2.119788173,-0.010591364
114051.7883,-9.772162856,2.114135827,-0.293208656
114061.554,-9.730697743,1.960142976,0.007148783
114071.3196,-9.539491521,1.877940034,-0.102998302
114081.0852,-9.576836082,1.96017399,0.008699495
114090.8508,-9.770417064,1.99762741,-0.118629481
114100.6165,-9.654799066,1.798094175,-0.095291263
114110.3821,-9.809870283,1.79564405,-0.217797524
114120.1477,-9.807047987,1.801288642,0.06443209
114129.9133,-9.693175781,1.718263823,-0.086808867
114139.679,-9.655202252,1.797287804,-0.135609779
114149.4446,-9.729758322,1.842021819,0.101090926
114159.2102,-9.885321424,1.918587922,-0.070603925
114168.9758,-9.73038729,1.680763881,0.038194041
114178.7415,-9.502727548,1.954544905,-0.272754763
114188.5071,-9.884470703,1.880289363,0.014468144
114198.2727,-9.656141673,1.915408962,-0.229551922
114208.0383,-9.654573283,1.958545742,-0.072712893
114217.804,-9.923964241,2.078225365,-0.08873175
114227.5696,-9.884470703,1.880289363,0.014468144
114237.3352,-9.808882479,1.997619657,-0.119017159
114247.1008,-9.768804323,2.000852892,0.042644585
114256.8665,-9.731907298,1.957723865,-0.113806766
114266.6321,-9.657125445,2.073441418,-0.327929101
114276.3977,-9.883261148,1.882708474,0.135423693
114286.1633,-9.768804323,2.000852892,0.042644585
114295.929,-9.618164112,2.354441007,-0.277949648
114305.6946,-9.655286921,2.237118467,-0.144076667
114315.4602,-9.732262101,2.277014259,-0.14928706
114325.2258,-9.923516705,2.039120436,-0.043978197
114334.9915,-9.96198212,2.039112682,-0.044365875
114344.7571,-10.11490839,1.560952447,0.047622371
114354.5227,-10.38712568,1.314979414,-0.251029285
114364.2883,-10.04200941,1.552904251,-0.354787436
114374.054,-9.579214874,1.555416405,-0.229179751
114383.8196,-9.582258922,1.749328309,-0.533584549
114393.5852,-9.771223434,1.99601467,-0.199266513
114403.3508,-9.465516038,1.992044847,-0.39775767
114413.1165,-9.851782931,1.98874183,-0.562908516
114422.8821,-9.544551495,2.067820086,-0.608995681
114432.6477,-9.717396664,1.626745133,1.337256635
114442.4133,-9.493994557,1.732010886,0.6005443
114452.179,-9.119323269,2.352122692,-0.393865383
114461.9446,-9.343983314,1.924341064,0.217053182
114471.7102,-9.768445489,2.041570561,0.078528064
114481.4758,-9.883930435,2.121369899,0.068494956
114491.2415,-9.767594768,2.003272003,0.163600133
114501.0071,-9.845420669,2.081466353,0.073317671
114510.7727,-10.00054027,1.758919464,-0.054026812
114520.5383,-9.654754716,1.758182875,-0.090856226
114530.304,-9.847037442,1.718232808,-0.088359579
114540.0696,-9.692772596,1.719070193,-0.046490351
114549.8352,-9.807721306,1.679942003,-0.002899832
114559.6008,-9.845557752,1.841192188,0.059609376
114569.3665,-9.808390593,1.918603429,-0.069828569
114579.1321,-9.960865297,1.761346328,0.067316415
114588.8977,-9.807451172,1.800482271,0.024113574
114598.6633,-9.770642848,1.837175843,-0.14120785
114608.429,-9.692905647,1.838804091,-0.059795461
114618.1946,-9.730072806,1.76139285,0.069642483
114627.9602,-9.885369806,1.598491157,-0.075442147
114637.7258,-9.881160553,1.446909663,0.345483163
114647.4915,-9.651799369,1.64409357,0.204678499
114657.2571,-10.03671962,1.88348383,0.174191497
114667.0227,-10.07594706,1.841952036,0.097601824
114676.7883,-10.11481566,1.841137913,0.056895629
114686.554,-10.11114667,1.448475883,0.423794127
114696.3196,-10.03484078,1.647241516,0.362075783
114706.0852,-9.617051321,1.716666589,-0.166670543
114715.8508,-9.462201856,1.918673211,-0.066339466
114725.6165,-9.503666969,2.072666062,-0.366696906
114735.3821,-9.772074155,2.034313228,-0.284338582
114745.1477,-9.846589906,1.679127879,-0.043606026
114754.9133,-9.808793779,1.917797058,-0.110147085
114764.679,-9.961087049,1.960902825,0.045141231
114774.4446,-9.921101626,1.683950594,0.197529716
114784.2102,-9.616333651,1.798101928,-0.094903584
114793.9758,-9.5774207,1.759004753,-0.049762353
114803.7415,-9.733564389,1.994409683,-0.279515868
114813.5071,-9.654125747,1.919440813,-0.02795934
114823.2727,-9.614539477,2.001690276,0.084513813
114833.0383,-9.731189629,2.039159204,-0.042039807
114842.804,-9.73127833,2.118981802,-0.05090988
114852.5696,-9.689857567,2.00490025,0.245012522
114862.3352,-9.539221387,1.998480302,-0.075984896
114872.1008,-9.617091639,2.116585952,-0.170702395
114881.8665,-9.769566343,1.959328852,-0.033557411
114891.6321,-9.732532235,2.156473991,-0.176300466
114901.3977,-9.769251859,2.039957821,-0.002108969
114911.1633,-9.654795035,2.158102238,-0.094888077
114920.929,-9.770328363,1.917804812,-0.109759407
114930.6946,-9.501784094,2.196431811,-0.178409435
114940.4602,-9.657661681,2.192368945,-0.381552728
114950.2258,-9.734007893,2.393522675,-0.323866236
114959.9915,-9.464435502,2.474205919,-0.289704047
114969.7571,-9.541680817,2.393561443,-0.321927845
114979.5227,-9.849807324,2.392693044,-0.365347786
114989.2883,-9.617269041,2.276231149,-0.188442542
114999.054,-9.578759275,2.236327603,-0.183619827
115008.8196,-9.733427306,2.234683849,-0.265807572
115018.5852,-9.808434944,1.958514728,-0.074263606
115028.3508,-9.810583921,2.074216774,-0.289161297
115038.1165,-9.541281664,2.03435975,-0.282012514
115047.8821,-9.731729897,1.798078668,-0.096066619
115057.6477,-9.771941104,1.914579331,-0.271033472
115067.4133,-9.772566041,2.113329457,-0.333527172
115077.179,-9.57988013,2.154085894,-0.295705303
115086.9446,-9.506307832,2.267384336,-0.630783187
115096.7102,-9.93104014,2.264073566,-0.796321711
115106.4758,-10.31354935,1.78828592,-0.585703985
115116.2415,-10.19708466,1.190446062,-0.477696882
115126.0071,-9.887123662,0.994983446,-0.250827693
115135.7727,-9.695687625,1.433240136,-0.337993223
115145.5383,-9.118879766,1.9530097,-0.349515015
115155.304,-8.886289068,2.516652633,-0.167368364
115165.0696,-8.884438448,3.760353873,0.017693626
115174.8352,-10.39744722,3.694336334,-1.283183302
115184.6008,-10.32138075,1.129546184,2.477309204
115194.3665,-10.03080893,1.655305219,0.765260946
115204.1321,-10.15507122,1.997549875,-0.122506261
115213.8977,-9.689680166,1.845255053,0.262752669
115223.6633,-9.691833174,1.600949036,0.047451792
115233.429,-9.537568328,1.60178642,0.089321021
115243.1946,-9.730568724,1.480401014,0.020050708
115252.9602,-9.654754716,1.758182875,-0.090856226
115262.7258,-9.768941406,1.760578726,0.028936289
115272.4915,-9.768893024,2.08067549,0.033774511
115282.2571,-9.84550937,2.161288952,0.064447598
115292.0227,-10.03971932,2.037484435,-0.125778264
115301.7883,-9.807043955,2.161296706,0.064835276
115311.554,-9.884023168,1.841184434,0.059221698
115321.3196,-9.807810007,1.759764602,-0.011769905
115331.0852,-9.730117156,1.801304149,0.065207447
115340.8508,-9.653815295,1.640061718,0.003085917
115350.6165,-9.653319377,1.921053554,0.052677692
115360.3821,-9.849500903,1.753305886,-0.334705714
115370.1477,-9.769118808,1.920223923,0.011196142
115379.9133,-9.769074457,1.880312624,0.015631179
115389.679,-9.689724516,1.885166353,0.258317632
115399.4446,-9.768312437,1.921836663,0.091833174
115409.2102,-9.690127701,1.884359982,0.217999116
115418.9758,-9.920879874,1.484394098,0.219704899
115428.7415,-9.653633861,1.840424585,0.02122925
115438.5071,-9.805523947,1.884336722,0.216836082
115448.2727,-10.19066999,1.963275414,0.163770712
115458.0383,-9.770062261,1.678337016,-0.083149186
115467.804,-9.80727377,1.640837074,0.041853721
115477.5696,-9.617853659,2.075061912,-0.246904391
115487.3352,-9.925802765,1.914548316,-0.272584184
115497.1008,-9.308162794,1.759059028,-0.047048607
115506.8665,-9.578985059,2.075876036,-0.206198197
115516.6321,-9.426062819,2.194028207,-0.298589627
115526.3977,-9.579251161,2.315343832,-0.232808417
115536.1633,-9.771175052,2.316111434,-0.194428291
115545.929,-9.809374365,2.076635885,-0.168205748
115555.6946,-9.654214448,1.999263412,-0.036829414
115565.4602,-9.731592814,2.038352834,-0.082358323
115575.2258,-9.732620936,2.236296589,-0.18517054
115584.9915,-9.695050592,2.314514201,-0.274289968
115594.7571,-9.885768959,1.95769285,-0.115357478
115604.5227,-9.616063517,1.918642196,-0.067890179
115614.2883,-9.501336559,2.157326882,-0.133655881
115624.054,-9.730697743,1.960142976,0.007148783
115633.8196,-9.923653788,1.79884627,-0.057686493
115643.5852,-9.807406822,1.760570972,0.028548611
115653.3508,-9.579343894,2.035158366,-0.242081676
115663.1165,-9.501606693,2.036786614,-0.160669287
115672.8821,-9.654347499,2.11899731,-0.050134524
115682.6477,-9.770594466,2.157272607,-0.136369628
115692.4133,-9.729576888,2.042384685,0.119234258
115702.179,-9.694873191,2.154869004,-0.256549821
115711.9446,-9.538681119,2.239560838,-0.021958084
115721.7102,-9.962877191,2.11732254,-0.133872981
115731.4758,-9.806104534,2.043175548,0.158777419
115741.2415,-9.77162662,1.995208299,-0.239585029
115751.0071,-9.963102975,1.956870973,-0.15645135
115760.7727,-9.884829538,1.839571693,-0.021415335
115770.5383,-9.694562738,1.875489909,-0.225504563
115780.304,-9.771179084,1.95610337,-0.194831476
115790.0696,-10.03927179,1.998379506,-0.081024711
115799.8352,-9.655065169,2.03756197,-0.121901483
115809.6008,-9.346624177,2.119059338,-0.0470331
115819.3665,-9.462778411,2.437520101,-0.123994945
115829.1321,-9.499586735,2.40082653,0.041326479
115838.8977,-9.809100199,2.557184217,-0.140789157
115848.6633,-9.732443535,2.076651392,-0.167430392
115858.429,-9.733024121,2.235490219,-0.225489056
115868.1946,-9.537693316,2.441536446,0.076822281
115877.9602,-9.7315404,2.718457662,-0.077116916
115887.7258,-10.23128841,1.718961643,-0.051917843
115897.4915,-11.18966202,0.96529134,0.264567002
115907.2571,-10.30666294,0.682058725,0.102936273
115917.0227,-10.2695361,1.15938933,-0.030533523
115926.7883,-9.462476022,1.438124879,-0.093756057
115936.554,-8.887551038,1.834128694,-0.29356532
115946.3196,-9.50299365,2.1940127,-0.299364983
115956.0852,-9.77090895,2.076643639,-0.16781807
115965.8508,-10.04494863,3.107025812,-0.64870942
115975.6165,-9.451590023,1.459896878,0.994843882
115985.3821,-10.26208927,2.094282989,0.714149473
115995.1477,-9.65524257,2.197207167,-0.13964163
116004.9133,-9.423595326,2.518963194,-0.051840308
116014.679,-9.576565948,2.080714258,0.035712901
116024.4446,-9.577461019,2.158924116,-0.053794205
116034.2102,-9.500352787,1.999294426,-0.035278702
116043.9758,-9.614136292,2.002496647,0.124832329
116053.7415,-9.425167748,2.11581835,-0.209082521
116063.5071,-9.576924783,2.039996588,-0.000170578
116073.2727,-9.807805975,2.119772666,-0.01136672
116083.0383,-9.693441883,1.957731618,-0.113419088
116092.804,-9.846900359,1.958506974,-0.074651284
116102.5696,-9.691784792,1.9210458,0.052290014
116112.3352,-9.731371062,1.838796337,-0.060183139
116122.1008,-9.61543858,1.71989207,-0.005396478
116131.8665,-9.538148915,1.760625247,0.031262357
116141.6321,-9.652783141,1.802126026,0.106301319
116151.3977,-9.845735154,2.000837385,0.041869228
116161.1633,-9.807495522,1.840393571,0.019678537
116170.929,-9.996955952,1.806088096,0.304404798
116180.6946,-9.841525901,1.849255891,0.462794538
116190.4602,-9.766788398,2.004884743,0.244237166
116200.2258,-10.45706125,1.928954432,0.447721616
116209.9915,-9.656996426,1.593699456,-0.315027176
116219.7571,-9.54495468,2.067013716,-0.649314198
116229.5227,-9.657036744,1.993618819,-0.319059028
116239.2883,-9.734636862,2.232264738,-0.386763121
116249.054,-9.695098974,1.994417436,-0.27912819
116258.8196,-9.541503415,2.233916246,-0.304187698
116268.5852,-9.810180736,2.075023144,-0.248842781
116278.3508,-9.734592512,2.192353438,-0.382328084
116288.1165,-9.733967575,1.993603312,-0.319834384
116297.8821,-9.655827189,1.99603793,-0.198103479
116307.6477,-9.771223434,1.99601467,-0.199266513
116317.4133,-9.772344289,1.91377296,-0.311351988
116327.179,-9.809152613,1.877079389,-0.146030565
116336.9446,-9.657617331,2.152457646,-0.377117691
116346.7102,-9.656540826,2.274610655,-0.269467253
116356.4758,-9.693978119,2.076659146,-0.167042714
116366.2415,-9.57911811,2.195609934,-0.219503307
116376.0071,-9.731637164,2.078264133,-0.08679336
116385.7727,-9.769836477,1.838788584,-0.060570817
116395.5383,-9.581000985,2.071844184,-0.407790778
116405.304,-9.733475689,1.914587084,-0.270645794
116415.0696,-9.503219434,2.033561133,-0.321943352
116424.8352,-9.50227598,2.27544804,-0.227598024
116434.6008,-9.501380909,2.197238182,-0.138090918
116444.3665,-9.694558706,2.235497972,-0.225101378
116454.1321,-9.885365774,1.958499221,-0.075038962
116463.8977,-9.806733502,1.881917611,0.095880533
116473.6633,-9.731818598,1.877901266,-0.104936692
116483.429,-9.809511448,1.836361719,-0.181914044
116493.1946,-9.808749428,1.877885759,-0.105712048
116502.9602,-9.847484977,1.757337737,-0.133113132
116512.7258,-9.810184767,1.715015081,-0.249245966
116522.4915,-9.657036744,1.993618819,-0.319059028
116532.2571,-9.926024517,2.114104813,-0.294759368
116542.0227,-9.732798338,2.395941786,-0.202910687
116551.7883,-9.54262427,2.151674537,-0.416273173
116561.554,-9.73360874,2.034320982,-0.283950904
116571.3196,-9.924234375,1.957685097,-0.115745156
116581.0852,-9.925310879,1.835532088,-0.223395594
116590.8508,-9.809555799,1.876273018,-0.186349081
116600.6165,-9.503175083,1.993649834,-0.317508316
116610.3821,-9.57907376,2.155698635,-0.21506827
116620.1477,-9.734056275,2.073425911,-0.328704458
116629.9133,-9.695276376,2.154062633,-0.296868337
116639.679,-9.577952905,2.237940344,-0.102982795
116649.4446,-9.389254495,2.230721779,-0.463911051
116659.2102,-9.310126306,2.435132004,-0.243399781
116668.9758,-9.465197522,2.432681879,-0.365906042
116678.7415,-9.271479457,2.635502625,-0.224868771
116688.5071,-11.00828546,3.18342909,-0.82854551
116698.2727,-8.987549642,0.704900716,1.245035783
116708.0383,-10.26096842,2.176524699,0.826234948
116717.804,-9.652823459,2.202045389,0.102269467
116727.5696,-9.652331573,2.123029161,0.151458057
116737.3352,-9.806374668,1.92263528,0.131764013
116747.1008,-9.690845371,1.802924643,0.146232157
116756.8665,-9.808120459,2.039143697,-0.042815163
116766.6321,-9.770775899,1.956909741,-0.15451296
116776.3977,-9.655871539,2.03594923,-0.202538516
116786.1633,-9.578670574,2.156505005,-0.174749754
116795.929,-9.463096927,1.996883069,-0.155846573
116805.6946,-9.501203508,2.037592985,-0.120350771
116815.4602,-9.618301195,2.114166841,-0.291657944
116825.2258,-9.655601405,2.156489498,-0.17552511
116834.9915,-9.501876827,1.916246346,-0.187682693
116844.7571,-9.617406124,2.035956983,-0.202150838
116854.5227,-9.767373016,1.803715506,0.185775317
116864.2883,-9.806552069,2.082280477,0.114023865
116874.054,-9.921053244,2.004047359,0.202367937
116883.8196,-9.885006939,1.99921689,-0.039155482
116893.5852,-9.767235933,2.043989672,0.199483613
116903.3508,-10.61616028,2.278448668,-0.077566622
116913.1165,-9.808620409,1.398143798,-0.092810123
116922.8821,-9.731641196,1.718256069,-0.087196545
116932.6477,-9.503981453,1.992037093,-0.398145348
116942.4133,-9.464439534,2.114197855,-0.290107232
116952.179,-9.158462004,2.2307683,-0.461584983
116961.9446,-9.926649454,2.312854939,-0.357253068
116971.7102,-9.809374365,2.076635885,-0.168205748
116981.4758,-9.732665287,2.276207888,-0.189605576
116991.2415,-9.618478596,2.273812038,-0.309398091
117001.0071,-9.849944407,2.152418878,-0.379056082
117010.7727,-9.694695789,1.995223807,-0.238809673
117020.5383,-9.81130159,1.992781435,-0.360928256
117030.304,-9.77162662,1.995208299,-0.239585029
117040.0696,-9.694292604,1.996030177,-0.198491157
117049.8352,-9.771892722,2.234676095,-0.26619525
117059.6008,-9.80968885,1.996006916,-0.199654191
117069.3665,-9.695453777,2.31370783,-0.314608484
117079.1321,-9.771312135,2.075837268,-0.208136587
117088.8977,-9.773328061,2.071805417,-0.409729168
117098.6633,-9.580061563,1.953723027,-0.313848635
117108.429,-9.656137641,2.275417025,-0.229148737
117118.1946,-9.65604894,2.195594427,-0.220278663
117127.9602,-9.771086351,2.236288836,-0.185558218
117137.7258,-9.734503811,2.11253084,-0.373458011
117147.4915,-9.464528235,2.194020454,-0.298977305
117157.2571,-9.732576586,2.19638529,-0.180735503
117167.0227,-9.809640467,2.316103681,-0.194815969
117176.7883,-9.617809309,2.035150613,-0.242469354
117186.554,-9.884918239,1.919394292,-0.030285409
117196.3196,-9.771312135,2.075837268,-0.208136587
117206.0852,-9.810942755,2.033499104,-0.325044777
117215.8508,-9.540656727,1.835609624,-0.219518814
117225.6165,-9.811523342,2.192337931,-0.38310344
117235.3821,-9.924726261,2.036701325,-0.164933746
117245.1477,-9.887200267,2.154830236,-0.258488211
117254.9133,-9.733382956,2.194772549,-0.261372535
117264.679,-9.657883433,2.391925442,-0.403727912
117274.4446,-9.541188931,2.314545215,-0.272739256
117284.2102,-9.502767866,2.354464268,-0.276786614
117293.9758,-9.577904523,2.558037109,-0.098144573
117303.7415,-9.732213719,2.597111023,-0.144448838
117313.5071,-9.848238934,2.435829825,-0.208508758
117323.2727,-10.26903615,1.800389229,0.019461438
117333.0383,-10.61657556,1.197618106,-0.119094694
117342.804,-10.49921177,0.881576454,0.078822699
117352.5696,-9.540350306,1.196222465,-0.188876742
117362.3352,-9.274039683,2.030382173,-0.480891349
117372.1008,-9.350567328,2.031173036,-0.441348189
117381.8665,-9.428300497,2.389552852,-0.522357393
117391.6321,-9.945187908,2.995778031,-2.211098447
117401.3977,-9.609036,1.412697231,0.63486156
117411.1633,-9.724379831,2.092778799,0.638939933
117420.929,-9.153712482,2.320267343,0.013367139
117430.6946,-9.428207764,2.669738317,-0.513084134
117440.4602,-9.347293465,2.357720763,-0.113961837
117450.2258,-9.501155125,2.357689749,-0.115512549
117459.9915,-9.616285269,2.118198693,-0.090065363
117469.7571,-9.655286921,2.237118467,-0.144076667
117479.5227,-9.80820916,2.118966295,-0.051685236
117489.2883,-9.540608344,2.155706388,-0.214680592
117499.054,-9.691248556,1.802118273,0.105913641
117508.8196,-9.693083048,1.998449288,-0.077535608
117518.5852,-9.768893024,2.08067549,0.033774511
117528.3508,-9.805701348,2.043981919,0.199095935
117538.1165,-9.767683469,2.083094601,0.15473006
117547.8821,-9.883305498,1.922619773,0.130988657
117557.6477,-9.959518659,2.004039605,0.201980259
117567.4133,-9.95638591,1.730305103,0.515255131
117577.179,-9.884111868,1.921007032,0.050351624
117586.9446,-9.807898707,1.8395872,-0.020639979
117596.7102,-10.30897723,2.03743016,-0.12849201
117606.4758,-9.308924814,1.717534988,-0.123250603
117616.2415,-9.312323665,2.230737286,-0.463135695
117626.0071,-9.69482884,2.114957704,-0.252114784
117635.7727,-9.733294255,2.114949951,-0.252502462
117645.5383,-9.541950951,2.273021175,-0.348941251
117655.304,-9.810180736,2.075023144,-0.248842781
117665.0696,-9.350877781,2.310552131,-0.472393447
117674.8352,-9.503082351,2.273835299,-0.308235057
117684.6008,-9.772295907,2.233869725,-0.306513766
117694.3665,-9.579521295,2.194803564,-0.259821823
117704.1321,-9.693933769,2.036747846,-0.162607678
117713.8977,-9.886978515,1.955273739,-0.236313027
117723.6633,-9.84855745,1.995192792,-0.240360386
117733.429,-9.925576981,2.074999884,-0.250005815
117743.1946,-9.694651439,1.955312507,-0.234374637
117752.9602,-9.618123793,1.954521644,-0.273917797
117762.7258,-9.809555799,1.876273018,-0.186349081
117772.4915,-9.733564389,1.994409683,-0.279515868
117782.2571,-10.07921689,1.875412373,-0.229381343
117792.0227,-9.657306878,1.873078551,-0.346072434
117801.7883,-9.58064215,2.112561854,-0.371907298
117811.554,-9.731862948,1.917812565,-0.109371729
117821.3196,-9.926201918,2.27375001,-0.312499515
117831.0852,-9.809507416,2.196369783,-0.181510859
117840.8508,-9.732802369,2.035933723,-0.203313872
117850.6165,-9.697336652,2.189942081,-0.502895955
117860.3821,-9.655109519,2.07747327,-0.12633652
117870.1477,-9.810583921,2.074216774,-0.289161297
117879.9133,-9.656186023,1.955320261,-0.233986959
117889.679,-9.65524257,2.197207167,-0.13964163
117899.4446,-9.733874842,2.273788777,-0.310561125
117909.2102,-9.848420367,2.235466958,-0.22665209
117918.9758,-9.619732502,2.311304226,-0.434788677
117928.7415,-9.734144976,2.153248509,-0.337574531
117938.5071,-9.77167097,2.035119599,-0.244020066
117948.2727,-9.694873191,2.154869004,-0.256549821
117958.0383,-9.92637932,2.433395207,-0.330239663
117967.804,-9.732217751,2.23710296,-0.144852023
117977.5696,-9.311605995,2.312172625,-0.391368736
117987.3352,-9.656000558,2.515691191,-0.215440441
117997.1008,-9.809148581,2.237087452,-0.145627379
118006.8665,-10.26872167,1.881018198,0.05090988
118016.6321,-10.34879331,1.434721066,-0.263946718
118026.3977,-10.23102634,1.119485784,-0.025710808
118036.1633,-10.1179605,1.034848224,-0.257588798
118045.929,-9.543527405,1.509868267,-0.50658665
118055.6946,-9.196838718,2.150937948,-0.453102587
118065.4602,-9.466902995,2.149270933,-0.536453366
118075.2258,-10.00488257,2.030234855,-0.488257232
118084.9915,-9.974472797,2.73413133,-1.293433509
118094.7571,-9.488938615,1.18212277,1.106138494
118104.5227,-10.07231436,2.209217433,0.460871655
118114.2883,-9.280571282,2.817318974,-1.134051313
118124.054,-9.384863809,2.279503152,-0.024842409
118133.8196,-9.575086258,2.203673637,0.183681856
118143.5852,-9.690482504,2.203650376,0.182518822
118153.3508,-9.539265738,2.038391601,-0.080419933
118163.1165,-9.615075714,2.120617804,0.030890186
118172.8821,-9.692276678,2.000062028,0.003101424
118182.6477,-9.653541129,2.12061005,0.030502508
118192.4133,-9.539624573,1.997673932,-0.116303412
118202.179,-9.767461717,1.883538105,0.176905244
118211.9446,-9.769788095,2.158885348,-0.055732595
118221.7102,-9.84707776,2.118152171,-0.092391431
118231.4758,-9.807894676,2.199595264,-0.020236794
118241.2415,-9.692272646,2.360070092,0.003504609
118251.0071,-9.500215704,2.239568592,-0.021570406
118260.7727,-9.805745699,2.083893218,0.194660898
118270.5383,-9.648658556,2.090375195,0.51875974
118280.304,-9.806777853,1.92182891,0.091445496
118290.0696,-9.61794236,2.154884511,-0.255774464
118299.8352,-10.03967094,2.357581199,-0.120940042
118309.6008,-10.19255286,1.839509665,-0.024516759
118319.3665,-9.387016817,2.035197134,-0.240143286
118329.1321,-9.501739744,2.156520512,-0.173974398
118338.8977,-9.503171051,2.353657897,-0.317105131
118348.6633,-9.65524257,2.197207167,-0.13964163
118358.429,-9.731951649,1.997635164,-0.118241803
118368.1946,-9.732939452,1.795659557,-0.217022167
118377.9602,-9.693800718,1.917013949,-0.149302567
118387.7258,-9.847170493,1.837966706,-0.10166469
118397.4915,-9.732802369,2.035933723,-0.203313872
118407.2571,-9.618482628,1.913803974,-0.309801276
118417.0227,-9.886752731,2.115725307,-0.213734658
118426.7883,-9.54186225,2.193198576,-0.340071178
118436.554,-9.695369108,1.873877168,-0.306141596
118446.3196,-9.57992448,2.193997193,-0.300140339
118456.0852,-9.695276376,2.154062633,-0.296868337
118465.8508,-9.734100626,2.11333721,-0.333139494
118475.6165,-9.463677514,2.155721895,-0.213905236
118485.3821,-9.69478449,2.075046405,-0.247679747
118495.1477,-9.733741791,2.15405488,-0.297256015
118504.9133,-9.656677909,2.034336489,-0.283175548
118514.679,-9.694292604,1.996030177,-0.198491157
118524.4446,-9.503086382,1.913827235,-0.308638242
118534.2102,-9.695010273,1.914594838,-0.270258116
118543.9758,-9.5806865,2.152473153,-0.376342335
118553.7415,-9.77243299,1.993595559,-0.320222062
118563.5071,-9.810809704,1.913765207,-0.311739666
118573.2727,-9.732624968,1.876288526,-0.185573725
118583.0383,-9.733475689,1.914587084,-0.270645794
118592.804,-10.00237476,1.955250479,-0.237476061
118602.5696,-9.963373109,1.836330705,-0.183464756
118612.3352,-9.771267785,2.035925969,-0.20370155
118622.1008,-9.617317423,1.956134385,-0.193280764
118631.8665,-9.501380909,2.197238182,-0.138090918
118641.6321,-9.731725865,2.158086731,-0.095663433
118651.3977,-10.00219333,2.155613345,-0.219332729
118661.1633,-9.849004986,2.034297721,-0.285113939
118670.929,-9.655335303,1.917021702,-0.148914889
118680.6946,-9.695905345,1.992804696,-0.359765222
118690.4602,-9.850839478,2.230628736,-0.468563188
118700.2258,-9.73365309,2.074232281,-0.288385941
118709.9915,-9.887917936,2.073394897,-0.33025517
118719.7571,-9.502949299,2.154101401,-0.294929947
118729.5227,-9.389387546,2.350455677,-0.477216162
118739.2883,-9.580279283,2.513287587,-0.335620634
118749.054,-9.887692153,2.233846464,-0.307676801
118758.8196,-9.542620238,2.5116826,-0.415869988
118768.5852,-9.696127096,2.192361192,-0.381940406
118778.3508,-9.504424957,2.391150086,-0.442495716
118788.1165,-9.273584083,2.711293371,-0.435331426
118797.8821,-10.35580874,3.020690222,-0.965488901
118807.6477,-8.881063789,1.087103192,0.355159607
118817.4133,-10.26195622,1.974549092,0.727454584
118827.179,-10.08405108,2.225743993,-0.712800354
118836.9446,-9.306009785,2.003365045,0.16825227
118846.7102,-9.994940026,1.810119948,0.505997379
118856.4758,-9.845602103,1.881103487,0.055174339
118866.2415,-9.730967877,1.839602708,-0.019864623
118876.0071,-9.92391989,2.038314066,-0.084296713
118885.7727,-9.770328363,1.917804812,-0.109759407
118895.5383,-9.657435897,2.352820513,-0.358974359
118905.304,-9.69478449,2.075046405,-0.247679747
118915.0696,-9.617494824,2.115779582,-0.211020911
118924.8352,-9.693530584,2.037554217,-0.122289161
118934.6008,-9.887200267,2.154830236,-0.258488211
118944.3665,-9.69406682,2.156481744,-0.175912788
118954.1321,-9.694381305,2.075852775,-0.207361231
118963.8977,-9.655375621,2.316941065,-0.152946741
118973.6633,-9.501965528,1.996068945,-0.196552767
118983.429,-9.464572585,2.233931753,-0.303412342
118993.1946,-9.731770215,2.197998031,-0.10009847
119002.9602,-9.498336861,2.003326278,0.16631388
119012.7258,-9.649513309,1.76866569,0.433284486
119022.4915,-9.691244524,2.162126337,0.106316826
119032.2571,-9.84707776,2.118152171,-0.092391431
119042.0227,-10.19210129,2.1604128,0.020639979
119051.7883,-9.583916013,1.786014127,-0.699293651
119061.554,-9.735265831,2.0710068,-0.449660006
119071.3196,-9.619196266,2.192376699,-0.38116505
119081.0852,-9.426332953,2.073487939,-0.325603033
119090.8508,-9.732935421,2.15566762,-0.216618982
119100.6165,-9.389165794,2.15089918,-0.455040978
119110.3821,-9.504247556,2.231504889,-0.424755569
119120.1477,-9.735890768,2.269756926,-0.512153707
119129.9133,-9.810358137,2.234668341,-0.266582928
119139.679,-9.733786141,2.193966179,-0.301691052
119149.4446,-9.657169795,2.113352717,-0.332364138
119159.2102,-9.810761322,2.233861971,-0.306901444
119168.9758,-9.501651043,2.076697914,-0.165104324
119178.7415,-9.734144976,2.153248509,-0.337574531
119188.5071,-9.809866251,2.155652113,-0.217394338
119198.2727,-9.731862948,1.917812565,-0.109371729
119208.0383,-9.81053957,2.034305475,-0.284726261
119217.804,-9.810269436,2.154845743,-0.257712855
119227.5696,-9.886797082,2.155636606,-0.218169694
119237.3352,-9.65604894,2.195594427,-0.220278663
119247.1008,-9.810761322,2.233861971,-0.306901444
119256.8665,-9.65681096,2.154070387,-0.296480659
119266.6321,-9.8097332,2.035918215,-0.204089228
119276.3977,-9.732802369,2.035933723,-0.203313872
119286.1633,-9.88661968,1.995991409,-0.200429547
119295.929,-9.693083048,1.998449288,-0.077535608
119305.6946,-9.61874873,2.15327177,-0.336411497
119315.4602,-9.850750777,2.150806138,-0.459693114
119325.2258,-9.964667333,2.273742256,-0.312887193
119334.9915,-9.658556752,2.270578803,-0.471059834
119344.7571,-9.811075807,2.153233002,-0.338349887
119354.5227,-9.54105588,2.194811317,-0.259434145
119364.2883,-9.506396533,2.347206935,-0.639653261
119374.054,-9.885006939,1.99921689,-0.039155482
119383.8196,-9.849226737,2.233854218,-0.307289123
119393.5852,-9.771134734,1.916192071,-0.19039644
119403.3508,-9.924641592,1.596870663,-0.156466857
119413.1165,-9.848964667,1.634378358,-0.281082087
119422.8821,-9.580823583,1.912198987,-0.390050631
119432.6477,-9.812107961,1.991168694,-0.441565289
119442.4133,-9.54334194,2.070239197,-0.488040132
119452.179,-9.61942205,2.031925132,-0.403743419
119461.9446,-9.275112155,2.268237228,-0.588138603
119471.7102,-9.276543463,2.465374613,-0.731269335
119481.4758,-9.622195963,2.346377304,-0.681134811
119491.2415,-9.808559931,2.798264753,-0.086762346
119501.0071,-10.08324874,1.86734867,-0.632566506
119510.7727,-9.914880479,1.176392888,0.819644422
119520.5383,-9.231316632,2.198905197,-0.054740139
119530.304,-9.541277632,2.394367813,-0.281609329
119540.0696,-9.575892629,2.202060896,0.103044823
119549.8352,-9.654928086,2.277836136,-0.108193188
119559.6008,-9.80749149,2.200401634,0.020081723
119569.3665,-9.654569251,2.318553806,-0.072309708
119579.1321,-9.771489537,2.235482465,-0.225876734
119588.8977,-9.577952905,2.237940344,-0.102982795
119598.6633,-9.732576586,2.19638529,-0.180735503
119608.429,-9.576610298,2.120625557,0.031277864
119618.1946,-9.694873191,2.154869004,-0.256549821
119627.9602,-9.80897118,2.077442255,-0.127887232
119637.7258,-9.732753987,2.356030487,-0.19847565
119647.4915,-10.1157067,2.279355834,-0.032208292
119657.2571,-9.770324331,2.277812876,-0.109356222
119667.0227,-9.95812767,2.206821583,0.341079141
119676.7883,-9.767457685,2.243546169,0.177308429
119686.554,-9.654883735,2.237924837,-0.103758151
119696.3196,-9.619643801,2.231481628,-0.425918603
119706.0852,-9.657798764,1.95209478,-0.395261024
119715.8508,-10.23419537,2.153147713,-0.342614346
119725.6165,-9.309190916,1.957002784,-0.149860824
119735.3821,-9.580638118,2.472569918,-0.371504113
119745.1477,-9.812640165,2.470104285,-0.49478573
119754.9133,-9.465915192,2.35124654,-0.437673001
119764.679,-9.541503415,2.233916246,-0.304187698
119774.4446,-9.619821203,2.391126825,-0.44365875
119784.2102,-9.581758973,2.390328208,-0.483589589
119793.9758,-9.659048638,2.349595032,-0.520248424
119803.7415,-9.658330968,2.431030371,-0.448481465
119813.5071,-9.851468447,2.069370799,-0.531460073
119823.2727,-9.811523342,2.192337931,-0.38310344
119833.0383,-9.580505067,2.35283602,-0.358199003
119842.804,-9.657972134,2.47174804,-0.412597986
119852.5696,-9.734681212,2.272176037,-0.391198158
119862.3352,-9.389028711,2.391173346,-0.441332682
119872.1008,-9.619643801,2.231481628,-0.425918603
119881.8665,-9.659048638,2.349595032,-0.520248424
119891.6321,-9.579968831,2.233908492,-0.304575376
119901.3977,-9.502949299,2.154101401,-0.294929947
119911.1633,-9.926068867,2.154016112,-0.299194405
119920.929,-9.504424957,2.391150086,-0.442495716
119930.6946,-9.812910299,2.349564017,-0.521799136
119940.4602,-9.42771991,2.230714025,-0.464298729
119950.2258,-9.503485536,2.273028929,-0.348553573
119959.9915,-9.467036046,2.26900483,-0.549758477
119969.7571,-9.658064866,2.191562575,-0.421871244
119979.5227,-9.620627573,2.389514084,-0.524295783
119989.2883,-9.582029107,2.26978794,-0.510602994
119999.054,-9.697155219,2.390304948,-0.484752623
120008.8196,-9.696663333,2.311288719,-0.435564033
120018.5852,-9.696127096,2.192361192,-0.381940406
120028.3508,-9.618522947,2.313723337,-0.313833128
120038.1165,-9.619506718,2.471755794,-0.412210308
120047.8821,-9.657435897,2.352820513,-0.358974359
120057.6477,-9.810491188,2.354402239,-0.279888039
120067.4133,-9.734681212,2.272176037,-0.391198158
120077.179,-9.772340257,2.273781024,-0.310948803
120086.9446,-9.659137339,2.42941763,-0.529118498
120096.7102,-9.619865553,2.431038124,-0.448093787
120106.4758,-9.774041699,2.350378141,-0.481092942
120116.2415,-9.504110473,2.471779055,-0.411047273
120126.0071,-9.389294814,2.630641142,-0.467942903
120135.7727,-9.734451397,2.792635668,-0.368216603
120145.5383,-10.04397292,2.228977228,-0.55113861
120155.304,-10.04111031,1.834702457,-0.264877145
120165.0696,-9.696578664,1.871458057,-0.427097144
120174.8352,-9.734640894,1.872256674,-0.387166306
120184.6008,-9.194330906,2.075953572,-0.202321416
120194.3665,-9.198987695,2.266639994,-0.668000279
120204.1321,-9.85441573,2.903476231,-0.826188427
120213.8977,-9.770288045,1.517885449,-0.105727555
120223.6633,-9.725952254,1.689633954,0.48169772
120233.429,-9.115738953,2.399291325,-0.035433773
120243.1946,-9.086095229,2.701655695,-0.917215231
120252.9602,-9.427090942,2.391971963,-0.401401844
120262.7258,-9.655464322,2.396763664,-0.161816814
120272.4915,-9.770683166,2.237095206,-0.145239701
120282.2571,-9.732620936,2.236296589,-0.18517054
120292.0227,-9.538503718,2.079915641,-0.004217937
120301.7883,-9.733024121,2.235490219,-0.225489056
120311.554,-9.810180736,2.075023144,-0.248842781
120321.3196,-9.771267785,2.035925969,-0.20370155
120331.0852,-9.8097332,2.035918215,-0.204089228
120340.8508,-9.963147325,1.996782272,-0.160886387
120350.6165,-9.46569344,2.151690044,-0.415497817
120360.3821,-9.77010258,2.078256379,-0.087181038
120370.1477,-9.617764959,1.995239314,-0.238034317
120379.9133,-9.655286921,2.237118467,-0.144076667
120389.679,-9.653496778,2.080698751,0.034937545
120399.4446,-9.57911811,2.195609934,-0.219503307
120409.2102,-9.809059881,2.157264854,-0.136757306
120418.9758,-9.768264055,2.241933428,0.096671396
120428.7415,-9.729887341,2.32176378,0.088189001
120438.5071,-9.539979376,2.316964326,-0.151783707
120448.2727,-9.500304405,2.31939119,-0.03044048
120458.0383,-10.57666271,2.440520729,0.026036457
120467.804,-9.464580649,1.513915626,-0.304218712
120477.5696,-9.505860296,2.228279407,-0.586029634
120487.3352,-9.65676661,2.114159088,-0.292045622
120497.1008,-9.502904949,2.114190102,-0.29049491
120506.8665,-9.272963178,2.152535182,-0.373240911
120516.6321,-9.619688152,2.271392927,-0.43035364
120526.3977,-9.504291906,2.271416188,-0.429190606
120536.1633,-9.850613694,2.391080304,-0.445984819
120545.929,-9.848956603,2.354394486,-0.280275717
120555.6946,-9.732217751,2.23710296,-0.144852023
120565.4602,-9.963998046,2.035080831,-0.245958456
120575.2258,-9.734459461,2.072619541,-0.369022974
120584.9915,-9.619196266,2.192376699,-0.38116505
120594.7571,-9.774223132,2.150015275,-0.499236274
120604.5227,-9.811926527,2.191531561,-0.423421957
120614.2883,-9.926919588,2.192314671,-0.384266474
120624.054,-9.579658378,1.954529398,-0.273530119
120633.8196,-9.50380002,2.19239996,-0.380002016
120643.5852,-9.579791429,2.074263295,-0.286835229
120653.3508,-9.311831779,2.151721058,-0.413947105
120663.1165,-9.851512797,2.109282098,-0.53589511
120672.8821,-9.732266133,1.917006195,-0.149690245
120682.6477,-9.694514356,2.195586673,-0.220666341
120692.4133,-9.619107565,2.1125541,-0.372294976
120702.179,-9.501965528,1.996068945,-0.196552767
120711.9446,-9.580013181,2.273819792,-0.309010413
120721.7102,-9.773549813,2.271361913,-0.431904352
120731.4758,-9.810583921,2.074216774,-0.289161297
120741.2415,-9.80901553,2.117353555,-0.132322269
120751.0071,-9.809866251,2.155652113,-0.217394338
120760.7727,-9.772969226,2.112523086,-0.373845689
120770.5383,-9.734773945,1.991990572,-0.400471416
120780.304,-9.695232025,2.114151334,-0.2924333
120790.0696,-9.695409427,2.273796531,-0.310173447
120799.8352,-9.618478596,2.273812038,-0.309398091
120809.6008,-9.618700348,2.473368534,-0.331573275
120819.3665,-9.505453079,2.589093841,-0.545307933
120829.1321,-9.619595419,2.551578392,-0.421080381
120838.8977,-9.579783366,2.794279423,-0.286028859
120848.6633,-9.656806929,2.514078451,-0.296077474
120858.429,-10.07912416,2.155597838,-0.220108085
120868.1946,-10.23339304,1.79475239,-0.262380498
120877.9602,-10.19287138,1.398872632,-0.056368387
120887.7258,-9.464088763,1.434899398,-0.255030123
120897.4915,-9.812555496,2.030273623,-0.486318842
120907.2571,-9.543970909,1.90898126,-0.550937018
120917.0227,-9.238037729,2.065463004,-0.726849806
120926.7883,-9.428207764,2.669738317,-0.513084134
120936.554,-9.659137339,2.42941763,-0.529118498
120946.3196,-10.04737581,2.382171462,-0.891426888
120956.0852,-8.92376668,2.718620486,-0.068975677
120965.8508,-10.08011196,1.953622231,-0.31888845
120975.6165,-9.803241919,1.648900778,0.445038884
120985.3821,-9.471648485,2.419779954,-1.011002303
120995.1477,-9.342902778,2.406502136,0.325106805
121004.9133,-9.614224993,2.082319245,0.115962256
121014.679,-9.69173641,2.241142565,0.057128236
121024.4446,-9.616148186,2.358472859,-0.076357067
121034.2102,-9.769921146,2.278619246,-0.069037706
121043.9758,-9.7709533,2.116554938,-0.172253107
121053.7415,-9.847706729,1.956894234,-0.155288316
121063.5071,-9.962788491,2.037499942,-0.125002908
121073.2727,-9.808793779,1.917797058,-0.110147085
121083.0383,-9.692812914,2.118989556,-0.050522202
121092.804,-9.847259194,1.917789305,-0.110534763
121102.5696,-9.808479294,1.998426027,-0.078698642
121112.3352,-9.808838129,1.957708358,-0.114582122
121122.1008,-9.807181038,1.92102254,0.05112698
121131.8665,-9.808031759,1.959321098,-0.033945089
121141.6321,-9.846138339,2.000031014,0.001550712
121151.3977,-9.615297465,2.3201743,0.008715002
121161.1633,-9.807805975,2.119772666,-0.01136672
121170.929,-9.959159824,2.044757275,0.237863739
121180.6946,-9.809729168,2.395926279,-0.203686043
121190.4602,-10.49919968,1.961600645,0.080032255
121200.2258,-9.425845099,1.634463647,-0.276817628
121209.9915,-9.580863902,2.31211835,-0.394082482
121219.7571,-9.696977817,2.23065975,-0.467012475
121229.5227,-9.734366728,2.352805006,-0.359749715
121239.2883,-9.274261435,2.229938669,-0.503066533
121249.054,-9.581311437,2.351223279,-0.438836035
121258.8196,-9.581625922,2.27059431,-0.470284478
121268.5852,-9.504872493,2.430255015,-0.487249269
121278.3508,-9.503038,2.233924,-0.30380002
121288.1165,-9.774130399,2.43020074,-0.489963016
121297.8821,-9.733830492,2.233877478,-0.306126088
121307.6477,-9.580553449,2.032739256,-0.363037225
121317.4133,-9.619913935,2.11094136,-0.452932009
121327.179,-9.502679165,2.274641669,-0.267916541
121336.9446,-9.620268738,2.430231754,-0.488412303
121346.7102,-9.773594163,2.311273212,-0.436339389
121356.4758,-9.427046591,2.352060664,-0.396966807
121366.2415,-9.695901313,2.352812759,-0.359362037
121376.0071,-9.928084793,2.14998426,-0.500786986
121385.7727,-9.426514387,1.873125073,-0.343746366
121395.5383,-9.580823583,1.912198987,-0.390050631
121405.304,-9.503888721,2.272222558,-0.38887209
121415.0696,-9.580234933,2.473376288,-0.331185597
121424.8352,-9.888675924,2.39187892,-0.40605398
121434.6008,-9.773416762,2.151628015,-0.418599242
121444.3665,-9.466854613,2.469367697,-0.531615144
121454.1321,-9.464528235,2.194020454,-0.298977305
121463.8977,-9.694288572,2.356038241,-0.198087972
121473.6633,-9.811612043,2.27216053,-0.391973514
121483.429,-9.927459856,1.951234134,-0.438293286
121493.1946,-9.92853636,1.829081126,-0.545943725
121502.9602,-9.888772689,1.751685392,-0.415730424
121512.7258,-10.54035837,1.476206338,-0.189683112
121522.4915,-9.847662379,1.916982934,-0.150853279
121532.2571,-9.041856202,2.233210672,-0.3394664
121542.0227,-9.195939615,2.432736154,-0.363192296
121551.7883,-9.734810232,2.751917998,-0.404100083
121561.554,-10.11798873,2.514791778,-0.260411094
121571.3196,-9.926068867,2.154016112,-0.299194405
121581.0852,-9.734503811,2.11253084,-0.373458011
121590.8508,-9.848287316,2.11573306,-0.21334698
121600.6165,-9.42615152,2.273850806,-0.307459701
121610.3821,-9.773461112,2.191539314,-0.423034278
121620.1477,-9.656762578,2.474167151,-0.291642437
121629.9133,-9.773682864,2.391095811,-0.445209462
121639.679,-9.504158855,2.15168229,-0.415885495
121649.4446,-9.582968528,2.387909097,-0.604545137
121659.2102,-9.578847976,2.316150202,-0.192489901
121668.9758,-9.540426911,2.356069255,-0.19653726
121678.7415,-9.584041001,2.625764152,-0.711792391
121688.5071,-9.929560451,2.387032945,-0.648352756
121698.2727,-9.424986315,2.316181216,-0.190939189
121708.0383,-9.498199778,2.243600444,0.180022175
121717.804,-9.806862522,2.361659572,0.082978608
121727.5696,-9.466628829,2.629819264,-0.509036775
121737.3352,-9.460677816,2.001721291,0.086064525
121747.1008,-9.729572856,2.402392749,0.119637443
121756.8665,-9.42543385,2.355286145,-0.235692742
121766.6321,-9.579295511,2.355255131,-0.237243454
121776.3977,-9.657032712,2.353626883,-0.318655843
121786.1633,-9.502453382,2.435093237,-0.245338172
121795.929,-9.695856962,2.31290146,-0.354927
121805.6946,-9.503171051,2.353657897,-0.317105131
121815.4602,-9.65604894,2.195594427,-0.220278663
121825.2258,-9.694558706,2.235497972,-0.225101378
121834.9915,-9.695453777,2.31370783,-0.314608484
121844.7571,-9.578223039,2.117400076,-0.129996201
121854.5227,-9.770235631,2.197990277,-0.100486148
121864.2883,-9.655645755,2.196400797,-0.179960147
121874.054,-9.730427609,2.080683244,0.034162189
121883.8196,-9.693574934,2.077465516,-0.126724198
121893.5852,-9.806955254,2.081474107,0.073705349
121903.3508,-9.880930737,1.967369294,0.368464717
121913.1165,-10.15207152,1.84354927,0.1774635
121922.8821,-10.57442907,1.884988021,0.249401037
121932.6477,-9.774049762,1.630362014,-0.481899312
121942.4133,-9.352942089,1.986423515,-0.67882425
121952.179,-9.044767199,2.307388678,-0.630566087
121961.9446,-9.58319028,2.587465594,-0.626720321
121971.7102,-9.735306149,2.470926163,-0.453691858
121981.4758,-9.734681212,2.272176037,-0.391198158
121991.2415,-9.849585572,2.193136548,-0.343172602
122001.0071,-9.734411078,2.392716305,-0.364184752
122010.7727,-9.811253208,2.312878199,-0.356090034
122020.5383,-9.501558311,2.356883379,-0.155831065
122030.304,-9.963683562,2.1157098,-0.214510014
122040.0696,-9.849359788,2.353588115,-0.320594233
122049.8352,-9.734366728,2.352805006,-0.359749715
122059.6008,-9.733338606,2.15486125,-0.256937499
122069.3665,-9.696796384,2.431022617,-0.448869143
122079.1321,-9.619196266,2.192376699,-0.38116505
122088.8977,-9.5806865,2.152473153,-0.376342335
122098.6633,-9.657706031,2.232280245,-0.385987765
122108.429,-9.618478596,2.273812038,-0.309398091
122118.1946,-9.504380607,2.351238786,-0.438060679
122127.9602,-9.542979073,2.470964931,-0.451753468
122137.7258,-9.620494522,2.269780187,-0.510990672
122147.4915,-9.657794732,2.312102843,-0.394857838
122157.2571,-9.580549417,2.392747319,-0.36263404
122167.0227,-9.580682468,2.512481217,-0.37593915
122176.7883,-9.657750382,2.272191544,-0.390422802
122186.554,-9.427538477,2.431076892,-0.446155397
122196.3196,-9.773638513,2.351184511,-0.440774426
