Timestamp,Accelerometer X,Accelerometer Y,Accelerometer Z
mSecs,m/(sec^2),m/(sec^2),m/(sec^2)
1205949.249,-10.32919045,-0.206073209,1.696339544
1205959.015,-9.905353213,-0.124552581,1.772370961
1205968.781,-9.789420731,-0.243456848,1.827157622
1205978.546,-9.712534251,-0.203530041,1.823497941
1205988.312,-9.866262861,-0.323294953,1.83525234
1205998.077,-9.979864933,-0.119729866,2.013506703
1206007.843,-10.02106394,-0.20520481,1.739759485
1206017.609,-9.866262861,-0.323294953,1.83525234
1206027.374,-9.865633892,-0.162037015,1.898149225
1206037.14,-9.905175812,-0.284197778,1.790111109
1206046.906,-10.02016887,-0.283414668,1.829266591
1206056.671,-10.2124516,-0.323364735,1.831763237
1206066.437,-10.02003582,-0.403148566,1.842571701
1206076.202,-9.943818629,-0.124560334,1.771983283
1206085.968,-9.942834857,-0.282592791,1.870360463
1206095.734,-9.940863281,-0.23864964,2.067518008
1206105.499,-10.17420793,-0.123800485,1.809975731
1206115.265,-9.942967908,-0.162858893,1.857055353
1206125.031,-9.90665147,-0.047149093,1.642545339
1206134.796,-9.867379684,-0.045528599,1.72357005
1206144.562,-10.02155583,-0.126188582,1.690570895
1206154.327,-10.09978492,-0.048800602,1.559969916
1206164.093,-9.907546541,0.031060765,1.553038233
1206173.859,-9.904321059,0.037511727,1.875586363
1206183.624,-9.86791592,0.073398928,1.669946423
1206193.39,-9.90512743,0.035898987,1.79494933
1206203.156,-9.866887798,-0.124544827,1.772758639
1206212.921,-9.867020849,-0.004810929,1.759453529
1206222.687,-9.867512735,0.074205299,1.710264939
1206232.452,-9.8671539,0.114922968,1.746148419
1206242.218,-9.943862979,-0.084649035,1.767548247
1206251.984,-10.0584085,-0.122970854,1.851457282
1206261.749,-9.905216131,0.115721585,1.786079257
1206271.515,-9.675500143,-0.006384902,1.680754887
1206281.281,-9.791880161,0.151624293,1.581214673
1206291.046,-9.983622619,0.352754763,1.637738131
1206300.812,-9.752386624,-0.046311709,1.684414567
1206310.577,-9.714546145,0.152446171,1.622308545
1206320.343,-9.521549782,-0.086176487,1.691175672
1206330.109,-9.751939088,-0.085416638,1.72916812
1206339.874,-9.94556442,-0.008051918,1.597404108
1206349.64,-9.944133113,-0.205189303,1.740534841
1206359.406,-10.02025757,-0.20359207,1.820396517
1206369.171,-10.09822056,-0.365671885,1.716405759
1206378.937,-10.17416358,-0.163711785,1.814410768
1206388.702,-10.06024703,-0.286647903,1.667604848
1206398.468,-9.983271848,-0.326543695,1.67281524
1206408.234,-10.09768029,-0.124591349,1.770432571
1206417.999,-9.906248285,-0.046342723,1.682863855
1206427.765,-10.05854156,-0.003236957,1.838152171
1206437.531,-10.13641584,-0.24513937,1.743031487
1206447.296,-10.0583198,-0.202793453,1.860327355
1206457.062,-10.09597885,-0.201188466,1.94057671
1206466.827,-10.13739961,-0.087106914,1.644654307
1206476.593,-10.09723275,-0.163696278,1.815186124
1206486.359,-10.01949555,-0.16206803,1.896598513
1206496.124,-9.867512735,0.074205299,1.710264939
1206505.89,-9.983179115,-0.04635823,1.682088499
1206515.656,-10.05894474,-0.004043327,1.797833655
1206525.421,-9.983312166,0.073375668,1.668783389
1206535.187,-9.983046064,-0.166092128,1.69539361
1206544.952,-9.982550146,0.114899708,1.744985385
1206554.718,-9.827168477,-0.162029262,1.898536903
1206564.484,-9.866170129,-0.043109488,1.844525598
1206574.249,-9.943862979,-0.084649035,1.767548247
1206584.015,-9.867020849,-0.004810929,1.759453529
1206593.781,-9.98353795,-0.0870759,1.64620502
1206603.546,-9.866750715,0.115729339,1.786466935
1206613.312,-9.903784823,-0.0814158,1.92920999
1206623.077,-9.944620967,0.233834989,1.691749436
1206632.843,-9.90597815,0.074197545,1.709877261
1206642.609,-10.05961806,-0.125389965,1.730501733
1206652.374,-10.02133005,0.034262985,1.713149264
1206662.14,-9.980179417,-0.200358835,1.98205826
1206671.906,-9.982328394,-0.084656789,1.767160568
1206681.671,-10.05760213,-0.121358114,1.932094314
1206691.437,-9.864916223,-0.080601676,1.969916184
1206701.202,-9.94556442,-0.008051918,1.597404108
1206710.968,-10.02164453,-0.046365984,1.681700821
1206720.734,-10.0194512,-0.201979329,1.90103355
1206730.499,-9.942967908,-0.162858893,1.857055353
1206740.265,-9.942250238,-0.081423554,1.928822312
1206750.031,-9.825866189,0.120575314,2.028765711
1206759.796,-10.01926977,-0.001616462,1.919176882
1206769.562,-10.05804967,-0.082253185,1.887340761
1206779.327,-9.982413063,0.355173874,1.75869368
1206789.093,-10.13493212,0.237828073,1.891403627
1206798.859,-9.942830825,0.077415273,1.870763648
1206808.624,-9.868004621,0.153221527,1.661076349
1206818.39,-10.13632311,0.035046095,1.752304746
1206828.156,-9.904454111,0.157245625,1.862281253
1206837.921,-10.05737635,0.039093454,1.954672683
1206847.687,-10.17313143,-0.001647477,1.91762617
1206857.452,-9.943322711,0.156431501,1.821575058
1206867.218,-10.09678119,0.157206857,1.860342862
1206876.984,-10.02074543,0.235432222,1.771611112
1206886.749,-10.0965554,0.317658425,1.882921232
1206896.515,-9.90279702,0.120559807,2.027990355
1206906.281,-9.828865887,0.274575919,1.72879595
1206916.046,-9.905079048,0.355995751,1.799787552
1206925.812,-9.827208796,0.237890101,1.894505051
1206935.577,-9.789279617,0.356825382,1.841269103
1206945.343,-9.942201856,0.238673211,1.933660534
1206955.109,-9.789146566,0.237091484,1.854574213
1206964.874,-9.712171385,0.197195692,1.859784606
1206974.64,-9.787985392,-0.080586169,1.97069154
1206984.406,-9.788473246,0.358438123,1.921906135
1206994.171,-9.94238329,0.038310344,1.915517201
1207003.937,-9.90436541,0.077423027,1.871151326
1207013.702,-9.865452459,0.038325851,1.916292557
1207023.468,-9.865855644,0.037519481,1.875974041
1207033.234,-9.981163189,-0.042326378,1.883681081
1207042.999,-10.13583122,-0.043970133,1.801493336
1207052.765,-10.05939228,0.035061602,1.753080102
1207062.531,-10.0196286,-0.042334132,1.883293402
1207072.296,-10.09579741,-0.000825599,1.958720042
1207082.062,-10.09669652,-0.282623805,1.868809751
1207091.827,-9.943415444,-0.123753964,1.8123018
1207101.593,-9.944354865,-0.005632807,1.718359657
1207111.359,-9.634885751,-0.122079195,1.896040256
1207121.124,-9.444663302,-0.04624968,1.687515992
1207130.89,-9.635466338,0.036759632,1.837981593
1207140.656,-9.792372047,0.230640522,1.532026083
1207150.421,-10.17528041,0.11405457,1.702728478
1207160.187,-10.02011646,0.39669016,1.834507998
1207169.952,-10.05934389,0.355158366,1.757918324
1207179.718,-10.09727307,0.236223085,1.811154273
1207189.484,-10.17514332,0.354328735,1.716436774
1207199.249,-10.02293875,0.391045568,1.552278384
1207209.015,-10.25207416,0.354313228,1.715661418
1207218.781,-9.905437882,0.315278081,1.763904073
1207228.546,-9.944665318,0.273746288,1.687314399
1207238.312,-10.09834958,0.114070077,1.703503834
1207248.077,-9.867960271,0.113310228,1.665511386
1207257.843,-9.752382592,0.313696355,1.684817753
1207267.609,-9.906917572,0.192318702,1.615935118
1207277.374,-9.831151947,0.150003799,1.500189962
1207287.14,-9.868226373,0.352778023,1.638901165
1207296.906,-9.944217782,0.234641359,1.732067952
1207306.671,-9.830341544,0.511624604,1.58123018
1207316.437,-9.908707714,0.348738418,1.436920906
1207326.202,-9.907901344,0.350351159,1.517557938
1207335.968,-9.79174711,0.031890396,1.594519783
1207345.734,-10.05997286,0.193900429,1.695021439
1207355.499,-9.944624999,-0.126173075,1.691346251
1207365.265,-10.05818272,0.037480713,1.874035651
1207375.031,-9.943278361,0.116520202,1.826010095
1207384.796,-10.02294279,0.031037504,1.551875199
1207394.562,-9.944487916,0.114101091,1.705054546
1207404.327,-10.02105991,0.154803253,1.74016267
1207414.093,-9.980711622,0.278576756,1.928837819
1207423.859,-9.942738092,0.357600738,1.880036907
1207433.624,-10.02043094,0.316061191,1.803059555
1207443.39,-9.982904949,0.434190102,1.70950509
1207453.156,-9.944306483,0.314463958,1.723197879
1207462.921,-9.907409458,0.271334931,1.566746528
1207472.687,-9.791295542,0.35279353,1.639676521
1207482.452,-9.87113737,0.42695603,1.347801478
1207492.218,-9.868673908,0.391882952,1.594147612
1207501.984,-9.790892357,0.353599901,1.679995038
1207511.749,-9.945830523,0.231415878,1.570793887
1207521.515,-9.907228024,0.471697797,1.584889861
1207531.281,-9.677826522,0.268962341,1.448117048
1207541.046,-9.639538508,0.428615292,1.430764579
1207550.812,-9.907990044,0.430173757,1.508687865
1207560.577,-10.06212184,0.309602475,1.480123747
1207570.343,-10.0228057,0.27131167,1.565583494
1207580.109,-9.867823188,0.353584394,1.679219682
1207589.874,-10.061763,0.350320145,1.516007226
1207599.64,-9.866928117,0.275374536,1.768726788
1207609.406,-10.21352004,0.274498383,1.724919169
1207619.171,-10.17523606,0.07414327,1.707163515
1207628.937,-10.06037605,0.193094058,1.654702922
1207638.702,-9.86956898,0.47009281,1.504640506
1207648.468,-9.906288603,0.35357664,1.678832004
1207658.234,-9.867016817,0.355197134,1.759856714
1207667.999,-9.715304133,0.470930195,1.546509735
1207677.765,-9.945378955,0.552319013,1.615950625
1207687.531,-9.906780489,0.432592868,1.629643414
1207697.296,-10.13743993,0.312812449,1.640622456
1207707.062,-10.25364255,0.311176448,1.558822389
1207716.827,-9.98451769,0.430964621,1.548231025
1207726.593,-10.06144852,0.430949113,1.547455669
1207736.359,-10.09825684,0.394255542,1.712777093
1207746.124,-9.869302877,0.230625015,1.531250727
1207755.89,-9.868182023,0.312866724,1.643336202
1207765.656,-9.831240647,0.229826398,1.491319889
1207775.421,-10.0214631,0.153996883,1.699844153
1207785.187,-10.01993906,0.237044963,1.852248145
1207794.952,-10.02195498,0.233013111,1.650655564
1207804.718,-9.981699425,0.076601149,1.830057454
1207814.484,-9.907232056,0.111689734,1.584486676
1207824.249,-9.983400867,0.153198266,1.659913315
1207834.015,-10.10005102,0.190667194,1.533359695
1207843.781,-10.09964783,0.191473564,1.573678212
1207853.546,-10.10040985,0.149949524,1.497476216
1207863.312,-9.79102944,0.113325735,1.666286742
1207873.077,-9.869435928,0.350358912,1.517945617
1207882.843,-9.945874873,0.271327177,1.56635885
1207892.609,-9.829627907,0.233051879,1.652593954
1207902.374,-9.945963574,0.351149776,1.557488777
1207912.14,-9.945112853,0.312851217,1.642560846
1207921.906,-10.10031712,0.430134989,1.506749475
1207931.671,-10.10036147,0.470046289,1.502314438
1207941.437,-10.02257992,0.431763237,1.588161863
1207951.202,-10.02374512,0.389432827,1.471641351
1207960.968,-10.25288053,0.352700488,1.635024385
1207970.734,-10.21701162,0.507515216,1.375760818
1207980.499,-10.06010591,0.313634327,1.681716328
1207990.265,-9.946189357,0.190698208,1.534910408
1208000.061,-9.868137672,0.272955425,1.647771239
1208009.796,-10.10126057,0.188248083,1.412404147
1208019.562,-9.984924907,0.070150186,1.507509324
1208029.327,-10.06060183,0.032642491,1.632124553
1208039.093,-10.21410466,0.073329146,1.666457321
1208048.859,-10.02168888,-0.006454684,1.677265784
1208058.624,-10.09974057,-0.088711901,1.564404953
1208068.39,-10.09969622,-0.1286232,1.56883999
1208078.156,-9.982638847,0.194722306,1.736115311
1208087.921,-9.983356516,0.113286967,1.664348352
1208097.687,-10.02043497,-0.043946873,1.80265637
1208107.452,-9.637437913,-0.007183519,1.640824048
1208117.218,-9.943367061,0.1963428,1.817140022
1208126.984,-9.866883766,0.235463236,1.773161825
1208136.749,-10.02199933,0.272924411,1.646220527
1208146.515,-9.907320757,0.191512332,1.575616602
1208156.281,-9.945963574,0.351149776,1.557488777
1208166.046,-10.21231048,0.276917494,1.845874718
1208175.812,-10.25332806,0.391805417,1.590270832
1208185.577,-10.06185171,0.430142743,1.507137153
1208195.343,-10.06314996,0.507546231,1.37731153
1208205.109,-9.908840765,0.468472316,1.423615796
1208214.874,-9.870016515,0.509197739,1.459886953
1208224.64,-10.02307181,0.510779465,1.538973273
1208234.406,-9.946052275,0.430972374,1.548618703
1208244.171,-9.985948997,0.628102006,1.405100292
1208253.937,-9.909110899,0.347932048,1.39660239
1208263.702,-10.02616424,0.384594605,1.229730254
1208273.468,-10.06413777,0.305570623,1.278531165
1208283.234,-9.793400169,0.428584277,1.429213866
1208292.999,-9.909066549,0.308020749,1.401037426
1208302.765,-9.985594194,0.308811612,1.440580587
1208312.531,-9.871584905,0.466060958,1.303047925
1208322.296,-9.871048669,0.347133431,1.356671551
1208332.062,-10.06333139,0.307183364,1.359168198
1208341.827,-9.87113737,0.42695603,1.347801478
1208351.593,-9.947709366,0.467658192,1.382909601
1208361.359,-9.87037535,0.468480069,1.424003474
1208371.124,-9.752604344,0.513252851,1.662642569
1208380.89,-10.09879711,0.153175006,1.658750281
1208390.656,-10.0616743,0.270497546,1.5248773
1208400.421,-9.94645546,0.430166004,1.508300187
1208410.187,-9.790981058,0.433422499,1.671124964
1208419.952,-9.946278058,0.270520807,1.526040334
1208429.718,-10.17550216,0.313611066,1.680553294
1208439.484,-9.829043288,0.434221116,1.711055802
1208449.249,-10.02222512,0.112472843,1.623642158
1208459.015,-10.1382463,0.311199708,1.559985423
1208468.781,-10.10018407,0.310401092,1.520054585
1208478.546,-10.09924465,0.192279935,1.613996728
1208488.312,-10.06207749,0.269691176,1.484558784
1208498.077,-9.869435928,0.350358912,1.517945617
1208507.843,-10.061763,0.350320145,1.516007226
1208517.609,-10.02141875,0.114085584,1.70427919
1208527.374,-9.985638545,0.348722911,1.43614555
1208537.14,-10.06225489,0.429336373,1.466818636
1208546.906,-9.947443263,0.228190396,1.409519822
1208556.671,-9.984699123,0.230601754,1.530087693
1208566.437,-10.13802455,0.111643212,1.582160607
1208576.202,-9.946548192,0.149980539,1.499026928
1208585.968,-9.832853388,0.226600916,1.330045824
1208595.734,-9.79425089,0.466882836,1.344141797
1208605.499,-9.832805006,0.546697681,1.334884045
1208615.265,-9.945786172,0.191504578,1.575228924
1208625.031,-9.869839114,0.349552542,1.4776271
1208634.796,-9.908260178,0.309633489,1.481674459
1208644.562,-9.946995728,0.189085468,1.454273375
1208654.327,-9.869435928,0.350358912,1.517945617
1208664.093,-10.10184116,0.34708691,1.354345483
1208673.859,-9.984473339,0.391053321,1.552666062
1208683.624,-10.09951075,0.43174773,1.587386507
1208693.39,-9.983937103,0.272125794,1.606289689
1208703.156,-10.09960348,0.151562265,1.578113249
1208712.921,-10.17666736,0.271280656,1.564032782
1208722.687,-10.13860513,0.270482039,1.524101944
1208732.452,-10.17962271,0.385369961,1.268498058
1208742.218,-10.0215518,0.233819482,1.69097408
1208751.984,-10.0634201,0.387005962,1.350298124
1208761.749,-10.1384237,0.470844906,1.542245276
1208771.515,-10.02392656,0.18906996,1.453498019
1208781.281,-9.755741124,0.42697929,1.348964512
1208791.046,-9.907901344,0.350351159,1.517557938
1208800.812,-10.13968164,0.14832903,1.416451505
1208810.577,-9.945963574,0.351149776,1.557488777
1208820.343,-10.02419266,0.428537756,1.426887798
1208830.109,-9.946681243,0.269714436,1.485721818
1208839.874,-9.985682895,0.38863421,1.431710513
1208849.64,-9.945604739,0.391867445,1.593372256
1208859.406,-9.984832174,0.350335652,1.516782582
1208869.171,-10.06185171,0.430142743,1.507137153
1208878.937,-9.946007924,0.391061075,1.55305374
1208888.702,-9.868718259,0.431794252,1.589712576
1208898.468,-9.986263482,0.547473037,1.37365185
1208908.234,-9.86880696,0.51161685,1.580842502
1208917.999,-9.83074473,0.510818233,1.540911664
1208927.765,-9.831732533,0.308842626,1.442131299
1208937.531,-9.832268769,0.427770153,1.388507672
1208947.296,-9.985727245,0.42854551,1.427275476
1208957.062,-10.21446349,0.032611477,1.630573841
1208966.827,-10.099289,0.232191234,1.609561691
1208976.593,-9.791831779,0.471721058,1.586052895
1208986.359,-9.753233312,0.351994914,1.599745683
1208996.124,-9.907990044,0.430173757,1.508687865
1209005.89,-10.06180736,0.390231444,1.51157219
1209015.656,-10.06288386,0.268078435,1.403921751
1209025.421,-10.17456274,0.195489909,1.774495437
1209035.187,-10.05983981,0.074166531,1.708326549
1209044.952,-9.983671001,0.032657998,1.632899909
1209054.718,-10.02182193,0.113279213,1.663960674
1209064.484,-9.946056306,0.07096431,1.548215518
1209074.249,-9.906917572,0.192318702,1.615935118
1209084.015,-10.02392656,0.18906996,1.453498019
1209093.781,-9.907723942,0.190705962,1.535298086
1209103.546,-10.25377963,0.070902282,1.545114094
1209113.312,-9.946100657,0.11087561,1.543780481
1209123.077,-10.09951478,0.071739666,1.586983322
1209132.843,-10.02522481,0.266473448,1.323672397
1209142.609,-10.17577229,0.193070798,1.653539888
1209152.374,-10.10022842,0.350312391,1.515619548
1209162.14,-10.29076535,0.193853907,1.69269537
1209171.906,-10.09933335,0.272102533,1.605126654
1209181.671,-10.0228944,0.351134268,1.556713421
1209191.437,-10.02307584,0.150771402,1.538570088
1209201.202,-10.1003655,0.110038225,1.501911253
1209210.968,-9.984969257,0.110061486,1.503074287
1209220.734,-9.945830523,0.231415878,1.570793887
1209230.499,-10.06279516,0.188255836,1.412791825
1209240.265,-9.906961922,0.232230002,1.611500081
1209250.031,-10.06122677,0.231392617,1.569630853
1209259.796,-9.792238996,0.110906624,1.545331193
1209269.562,-10.10063564,-0.010502043,1.474897847
1209279.327,-10.17689315,0.110829088,1.541454413
1209289.093,-9.793178417,0.229027781,1.45138905
1209298.859,-9.871274453,0.186681864,1.334093182
1209308.624,-9.946681243,0.269714436,1.485721818
1209318.39,-10.02405961,0.308803858,1.440192909
1209328.156,-10.17800997,0.388595442,1.429772123
1209337.921,-9.832002667,0.188302358,1.415117893
1209347.687,-9.909066549,0.308020749,1.401037426
1209357.452,-10.06239197,0.189062207,1.453110341
1209367.218,-9.945830523,0.231415878,1.570793887
1209376.984,-9.947398913,0.188279097,1.413954859
1209386.749,-10.13990339,0.347885526,1.394276321
1209396.515,-10.02316454,0.230594,1.529700015
1209406.281,-10.06270243,0.468441302,1.422065083
1209416.046,-10.02392656,0.18906996,1.453498019
1209425.812,-10.29318446,0.189015685,1.450784273
1209435.577,-10.0228944,0.351134268,1.556713421
1209445.343,-9.907768293,0.230617261,1.530863049
1209455.109,-10.06301691,0.387812333,1.390616641
1209464.874,-9.907006273,0.272141301,1.607065045
1209474.64,-9.983130733,0.273738534,1.686926721
1209484.406,-10.02235817,0.232206741,1.610337047
1209494.171,-10.10022842,0.350312391,1.515619548
1209503.937,-9.984340288,0.271319423,1.565971172
1209513.702,-9.869077094,0.391076582,1.553829096
1209523.468,-9.869302877,0.230625015,1.531250727
1209533.234,-9.830522978,0.311261737,1.563086848
1209542.999,-9.98532406,0.42935188,1.467593993
1209552.765,-10.21526583,0.3910068,1.550339994
1209562.531,-9.830656029,0.430995635,1.549781737
1209572.296,-10.06221054,0.389425073,1.471253673
1209582.062,-10.06306126,0.427723632,1.386181604
1209591.827,-9.871093019,0.38704473,1.352236515
1209601.593,-10.2148183,0.351901871,1.595093547
1209611.359,-10.10018407,0.310401092,1.520054585
1209621.124,-9.984070154,0.391859692,1.592984578
1209630.89,-10.10031712,0.430134989,1.506749475
1209640.656,-10.02070108,0.195520923,1.776046149
1209650.421,-10.09991394,0.43094136,1.547067991
1209660.187,-9.791924511,0.191535593,1.576779636
1209669.952,-9.677286254,0.510042877,1.50214386
1209679.718,-9.752515643,0.433430253,1.671512642
1209689.484,-9.905885418,0.35438301,1.71915052
1209699.249,-9.870286649,0.388657471,1.432873547
1209709.015,-10.09955913,0.111650966,1.582548285
1209718.781,-9.947354563,0.148367798,1.418389896
1209728.546,-10.06266211,0.068521939,1.426096935
1209738.312,-10.0213744,0.074174285,1.708714227
1209748.077,-10.17447404,0.11566731,1.783365511
1209757.843,-10.24957038,-0.080679212,1.966039404
1209767.609,-10.01877788,-0.080632691,1.968365472
1209777.374,-9.94238329,0.038310344,1.915517201
1209787.14,-10.09741016,-0.00405108,1.797445977
1209796.906,-10.21159685,-0.00165523,1.917238492
1209806.671,-10.21128236,0.078973739,1.948686934
1209816.437,-10.21209276,-0.282647066,1.867646717
1209826.202,-10.1352466,0.157199104,1.859955184
1209835.968,-9.942250238,-0.081423554,1.928822312
1209845.734,-10.09978492,-0.048800602,1.559969916
1209855.499,-9.94632644,-0.049575958,1.521202112
1209865.265,-10.17478852,0.035038341,1.751917068
1209875.031,-9.791432625,0.112519365,1.625968226
1209884.796,-10.09826088,0.034247478,1.712373908
1209894.562,-9.868766641,0.111697487,1.584874354
1209904.327,-10.02303149,0.110860103,1.543005125
1209914.093,-9.904994379,-0.083834911,1.808254441
1209923.859,-9.868722291,0.071786188,1.58930939
1209933.624,-9.907768293,0.230617261,1.530863049
1209943.39,-10.05948098,0.114884201,1.744210028
1209953.156,-9.947576314,0.347924294,1.396214712
1209962.921,-9.753233312,0.351994914,1.599745683
1209972.687,-9.792819582,0.269745451,1.48727253
1209982.452,-9.601298877,0.268171478,1.408573888
1209992.218,-9.79102944,0.113325735,1.666286742
1210001.984,-9.870423732,0.148383305,1.419165252
1210011.749,-9.983445217,0.193109566,1.655478278
1210021.515,-9.986178813,0.107642375,1.382118738
1210031.281,-9.947531964,0.308012995,1.400649748
1210041.046,-10.06642383,0.180998504,1.049925178
1210050.812,-9.794117839,0.347148938,1.357446907
1210060.577,-10.10121622,0.148336784,1.416839183
1210070.343,-10.0993777,0.312013832,1.600691618
1210080.109,-9.983937103,0.272125794,1.606289689
1210089.874,-10.25319501,0.272071519,1.603575942
1210099.64,-9.944620967,0.233834989,1.691749436
1210109.406,-10.06010591,0.313634327,1.681716328
1210119.171,-9.945024152,0.233028618,1.65143092
1210128.937,-9.791924511,0.191535593,1.576779636
1210138.702,-9.637119397,0.433453514,1.672675676
1210148.468,-9.982191311,0.155617377,1.780868864
1210158.234,-10.02293875,0.391045568,1.552278384
1210167.999,-9.909602785,0.426948276,1.3474138
1210177.765,-9.871363154,0.266504462,1.325223109
1210187.531,-9.793267118,0.30885038,1.442518977
1210197.296,-9.870601134,0.308028502,1.401425104
1210207.062,-10.25521094,0.268039667,1.401983361
1210216.827,-10.10099044,0.308788351,1.439417553
1210226.593,-10.37092167,0.187387438,1.369371884
1210236.359,-9.869480279,0.390270212,1.51351058
1210246.124,-10.10166376,0.187441713,1.37208563
1210255.89,-9.794476673,0.306431269,1.321563428
1210265.656,-9.719065851,0.58340676,1.170337978
1210275.421,-9.911259876,0.463634094,1.181704698
1210285.187,-9.794117839,0.347148938,1.357446907
1210294.952,-9.832986439,0.346334814,1.316740713
1210304.718,-9.716783823,0.347970816,1.39854078
1210314.484,-9.832538903,0.307229885,1.361494266
1210324.249,-9.94730618,0.468464562,1.423228118
1210334.015,-9.870286649,0.388657471,1.432873547
1210343.781,-9.79501291,0.425358796,1.267939801
1210353.546,-10.02329759,0.350327898,1.516394904
1210363.312,-9.831865584,0.428576524,1.428826188
1210373.077,-9.948560086,0.505956751,1.297837532
1210382.843,-9.984384639,0.311230723,1.561536135
1210392.609,-10.02410396,0.348715157,1.435757872
1210402.374,-10.09991394,0.43094136,1.547067991
1210412.14,-10.06297256,0.347901034,1.395051677
1210421.906,-9.793041334,0.469301947,1.465097346
1210431.671,-10.02199933,0.272924411,1.646220527
1210441.437,-10.02231382,0.192295442,1.614772084
1210451.202,-9.830793112,0.190721469,1.536073442
1210460.968,-10.25507788,0.148305769,1.415288471
1210470.734,-10.10148233,0.387804579,1.390228963
1210480.499,-10.02267265,0.151577772,1.578888605
1210490.265,-9.945382987,0.192310949,1.61554744
1210500.031,-9.792013212,0.271358191,1.567909562
1210509.796,-10.10072434,0.069320555,1.466027773
1210519.562,-9.946189357,0.190698208,1.534910408
1210529.327,-10.21562467,0.35028913,1.514456514
1210539.093,-10.25463035,0.10920084,1.460042024
1210548.859,-10.10018407,0.310401092,1.520054585
1210558.624,-9.947040078,0.228996767,1.449838338
1210568.39,-10.13869384,0.350304637,1.51523187
1210578.156,-9.716650772,0.228236918,1.41184589
1210587.921,-10.06288386,0.268078435,1.403921751
1210597.687,-10.10013972,0.270489792,1.524489622
1210607.452,-9.830970513,0.350366666,1.518333295
1210617.218,-9.868182023,0.312866724,1.643336202
1210626.984,-9.945786172,0.191504578,1.575228924
1210636.749,-9.830748761,0.15081017,1.540508479
1210646.515,-10.09978088,0.311207462,1.560373101
1210656.281,-9.910320455,0.345512937,1.275646841
1210666.046,-9.985997379,0.308005241,1.40026207
1210675.812,-9.869976197,0.109278376,1.463918805
1210685.577,-9.678991727,0.226631931,1.331596536
1210695.343,-9.640836764,0.506018779,1.300938956
1210705.109,-9.75475332,0.628954898,1.447744877
1210714.874,-9.640344878,0.427002551,1.350127546
1210724.64,-10.17653431,0.151546758,1.577337892
1210734.406,-10.06489979,0.264046583,1.20232917
1210744.171,-10.17774387,0.149127647,1.456382344
1210753.937,-10.10099044,0.308788351,1.439417553
1210763.702,-10.14106456,0.66556318,1.278158995
1210773.468,-10.17935258,0.505910229,1.295511464
1210783.234,-10.06265808,0.428530002,1.42650012
1210792.999,-10.02522481,0.266473448,1.323672397
1210802.765,-9.907768293,0.230617261,1.530863049
1210812.531,-9.599774837,0.351219558,1.560977879
1210822.296,-9.946951377,0.149174168,1.458708412
1210832.062,-10.13878254,0.430127236,1.506361797
1210841.827,-9.985727245,0.42854551,1.427275476
1210851.593,-10.06310561,0.467634931,1.381746567
1210861.359,-10.02419266,0.428537756,1.426887798
1210871.124,-9.793041334,0.469301947,1.465097346
1210880.89,-10.14035093,0.386990455,1.349522768
1210890.656,-9.9479795,0.347117924,1.355896195
1210900.421,-9.945649089,0.431778744,1.588937219
1210910.187,-10.02312019,0.190682701,1.534135052
1210919.952,-9.870689834,0.387851101,1.392555031
1210929.718,-9.831373698,0.349560296,1.478014778
1210939.484,-9.754217084,0.51002737,1.501368503
1210949.249,-10.06252502,0.308796105,1.439805231
1210959.015,-9.983485536,0.593028929,1.651446427
1210968.781,-9.946769944,0.349537035,1.476851744
1210978.546,-9.870064897,0.189100975,1.455048731
1210988.312,-9.946636893,0.229803137,1.490156855
1210998.077,-10.02410396,0.348715157,1.435757872
1211007.843,-9.791876129,0.511632357,1.581617858
1211017.609,-9.909691486,0.506770875,1.338543726
1211027.374,-9.985545812,0.628908376,1.445418809
1211037.14,-10.02544657,0.466029944,1.301497213
1211046.906,-9.796178115,0.383028386,1.151419289
1211056.671,-9.718348181,0.664842099,1.242104937
1211066.437,-9.561890008,0.510066138,1.503306894
1211076.202,-9.872076791,0.545077187,1.253859335
1211085.968,-9.987339986,0.425320028,1.266001411
1211095.734,-10.17872764,0.307160103,1.358005164
1211105.499,-10.02365642,0.309610228,1.480511425
1211115.265,-10.17809867,0.468418041,1.420902049
1211125.031,-9.870778535,0.467673699,1.383684957
1211134.796,-9.947975468,0.707125988,1.35629938
1211144.562,-10.06247664,0.628892869,1.444643453
1211154.327,-10.17867926,0.627256868,1.362843386
1211164.093,-10.06471835,0.46440945,1.220472502
1211173.859,-10.10224435,0.346280539,1.314026967
1211183.624,-10.02392656,0.18906996,1.453498019
1211193.39,-10.21553596,0.270466532,1.523326588
1211203.156,-9.946189357,0.190698208,1.534910408
1211212.921,-10.10072434,0.069320555,1.466027773
1211222.687,-9.946503842,0.110069239,1.503461965
1211232.452,-10.02293875,0.391045568,1.552278384
1211242.218,-10.33097656,0.31035457,1.517728517
1211251.984,-9.945423306,0.592230312,1.611515589
1211261.749,-10.17635288,0.351909624,1.595481225
1211271.515,-10.1769375,0.150740388,1.537019376
1211281.281,-10.09933335,0.272102533,1.605126654
1211291.046,-10.05997286,0.193900429,1.695021439
1211300.812,-10.10013972,0.270489792,1.524489622
1211310.577,-10.02199933,0.272924411,1.646220527
1211320.343,-9.908796415,0.428561017,1.428050832
1211330.109,-10.06216619,0.349513774,1.47568871
1211339.874,-10.06136385,-0.008881549,1.555922557
1211349.64,-10.1769375,0.150740388,1.537019376
1211359.406,-10.14021384,0.627264621,1.363231064
1211369.171,-10.17823575,0.228143875,1.407193754
1211378.937,-9.985057958,0.189884084,1.494204213
1211388.702,-9.639494158,0.388703992,1.435199615
1211398.468,-9.947757748,0.147561428,1.378071379
1211408.234,-9.793311468,0.348761679,1.43808394
1211417.999,-9.677423337,0.269768711,1.488435564
1211427.765,-10.02482163,0.267279818,1.363990913
1211437.531,-10.14321757,0.421257162,1.062858118
1211447.296,-10.0228057,0.27131167,1.565583494
1211457.062,-10.17908648,0.266442434,1.322121684
1211466.827,-9.870286649,0.388657471,1.432873547
1211476.593,-9.984832174,0.350335652,1.516782582
1211486.359,-10.06480705,0.544232049,1.211602428
1211496.124,-9.794742776,0.545899064,1.294953207
1211505.89,-10.02446279,0.307997488,1.399874392
1211515.656,-10.02450714,0.347908787,1.395439356
1211525.421,-10.02446279,0.307997488,1.399874392
1211535.187,-10.02432571,0.548271654,1.413582688
1211544.952,-10.17935258,0.505910229,1.295511464
1211554.718,-10.17796562,0.348684143,1.43420716
1211564.484,-9.870645484,0.347939801,1.396990068
1211574.249,-10.02365642,0.309610228,1.480511425
1211584.015,-10.06256937,0.348707404,1.435370194
1211593.781,-10.10286928,0.545030665,1.251533267
1211603.546,-10.02338629,0.430150497,1.507524831
1211613.312,-10.06435952,0.50512712,1.256355981
1211623.077,-10.25570282,0.347055895,1.352794771
1211632.843,-10.06306126,0.427723632,1.386181604
1211642.609,-9.94802385,0.387029223,1.351461159
1211652.374,-9.948112551,0.466851822,1.342591085
1211662.14,-10.10192986,0.426909508,1.34547541
1211671.906,-9.986936801,0.426126399,1.306319927
1211681.671,-9.985013607,0.149972785,1.49863925
1211691.437,-10.06221054,0.389425073,1.471253673
1211701.202,-10.10040582,0.509957588,1.497879401
1211710.968,-9.94726183,0.428553263,1.427663154
1211720.734,-9.985235359,0.349529281,1.476464066
1211730.499,-10.02616424,0.384594605,1.229730254
1211740.265,-10.06243632,0.228973506,1.448675304
1211750.031,-10.06333139,0.307183364,1.359168198
1211759.796,-10.02392656,0.18906996,1.453498019
1211769.562,-9.946769944,0.349537035,1.476851744
1211779.327,-9.87037535,0.468480069,1.424003474
1211789.093,-10.02423701,0.468449055,1.422452761
1211798.859,-9.872838811,0.503553147,1.177657339
1211808.624,-9.948019818,0.747037287,1.351864344
1211818.39,-9.94721748,0.388641964,1.432098191
1211828.156,-9.986219131,0.507561738,1.378086886
1211837.921,-9.946185326,0.550706272,1.535313593
1211847.687,-10.09991394,0.43094136,1.547067991
1211857.452,-9.90991727,0.346319307,1.315965357
1211867.218,-10.06203314,0.229779876,1.48899382
1211876.984,-10.10013972,0.270489792,1.524489622
1211886.749,-9.98613043,0.427739139,1.38695696
1211896.515,-10.10278058,0.465208067,1.26040334
1211906.281,-10.02549092,0.505941244,1.297062176
1211916.046,-10.10139363,0.307981981,1.399099036
1211925.812,-10.0644079,0.185030355,1.25151776
1211935.577,-10.10099044,0.308788351,1.439417553
1211945.343,-10.02401526,0.268892559,1.444627945
1211955.109,-10.02378948,0.429344126,1.467206314
1211964.874,-10.10040582,0.509957588,1.497879401
1211974.64,-10.10094609,0.268877052,1.443852589
1211984.406,-10.09982523,0.351118761,1.555938065
1211994.171,-10.02159615,0.273730781,1.686539043
1212003.937,-10.29161607,0.232152466,1.607623301
1212013.702,-10.21428206,0.232974343,1.648717173
1212023.468,-10.25458197,0.429297605,1.464880246
1212033.234,-10.02266862,0.511585836,1.57929179
1212042.999,-10.21687857,0.387781319,1.389065929
1212052.765,-10.25328371,0.351894117,1.594705869
1212062.531,-10.17886069,0.426894001,1.344700053
1212072.296,-10.13766571,0.152360882,1.618044087
1212082.062,-10.06431517,0.46521582,1.260791018
1212091.827,-10.10175246,0.267264311,1.363215557
1212101.593,-10.02410396,0.348715157,1.435757872
1212111.359,-9.987384336,0.465231327,1.261566374
1212121.124,-10.02661177,0.423699534,1.184976701
1212130.89,-10.06409341,0.265659324,1.282966202
1212140.656,-10.025628,0.265667078,1.28335388
1212150.421,-10.06471835,0.46440945,1.220472502
1212160.187,-9.795952331,0.543479953,1.173997658
1212169.952,-9.950979197,0.501118529,1.055926434
1212179.718,-9.911888845,0.302376156,1.118807812
1212189.484,-9.950757445,0.301562032,1.078101618
1212199.249,-9.987251285,0.34549743,1.274871485
1212209.015,-9.911441309,0.263271227,1.163561366
1212218.781,-10.02737379,0.382175494,1.108774705
1212228.546,-9.91076799,0.384617866,1.230893288
1212238.312,-9.948918921,0.465239081,1.261954052
1212248.077,-9.987473037,0.545053926,1.252696301
1212257.843,-9.988057655,0.343884689,1.194234452
1212267.609,-10.10358695,0.463595326,1.179766308
1212277.374,-10.10492956,0.580910113,1.045505648
1212287.14,-9.985953029,0.268093942,1.404697107
1212296.906,-9.83311949,0.466068712,1.303435603
1212306.671,-10.10112349,0.428522249,1.426112442
1212316.437,-10.25342079,0.111619951,1.580997573
1212326.202,-10.02401526,0.268892559,1.444627945
1212335.968,-10.33218612,0.307935459,1.396772968
1212345.734,-10.06427082,0.425304521,1.265226055
1212355.499,-10.17778822,0.189038946,1.451947307
1212365.265,-10.10090174,0.228965753,1.448287626
1212375.031,-9.947757748,0.147561428,1.378071379
1212384.796,-10.02414831,0.388626457,1.431322835
1212394.562,-9.754487218,0.389487102,1.474355098
1212404.327,-9.793311468,0.348761679,1.43808394
1212414.093,-10.09901886,0.352731502,1.636575097
1212423.859,-10.10318377,0.464401696,1.220084824
1212433.624,-10.10107914,0.38861095,1.430547479
1212443.39,-10.21732611,0.426886248,1.344312375
1212453.156,-10.25731556,0.343830414,1.191520706
1212462.921,-10.02526916,0.306384747,1.31923736
1212472.687,-10.02320486,0.630513363,1.525668163
1212482.452,-10.10479651,0.461176215,1.058810759
1212492.218,-10.10179278,0.667183674,1.359183705
1212501.984,-9.910901041,0.504351764,1.217588177
1212511.749,-10.10184116,0.34708691,1.354345483
1212521.515,-9.909110899,0.347932048,1.39660239
1212531.281,-10.06453692,0.664772317,1.238615834
1212541.046,-9.987206935,0.30558613,1.279306522
1212550.812,-9.911796112,0.582561621,1.128081071
1212560.577,-9.947935149,0.307206625,1.360331232
1212570.343,-9.98680375,0.306392501,1.319625038
1212580.109,-10.02584975,0.465223574,1.261178696
1212589.874,-10.06288386,0.268078435,1.403921751
1212599.64,-10.06382328,0.386199592,1.309979608
1212609.406,-10.02728509,0.302352896,1.117644778
1212619.171,-10.13779876,0.27209478,1.604738976
1212628.937,-9.75618866,0.466084219,1.304210959
1212638.702,-10.0647627,0.504320749,1.216037465
1212648.468,-9.832809038,0.186689617,1.33448086
1212658.234,-9.794968559,0.385447497,1.272374838
1212667.999,-10.10206694,0.186635342,1.331767114
1212677.765,-10.10578431,0.259200608,0.960030394
1212687.531,-10.02424104,0.108440992,1.422049576
1212697.296,-9.794791158,0.2258023,1.290114985
1212707.062,-9.909203632,0.067746583,1.387329131
1212716.827,-10.0634201,0.387005962,1.350298124
1212726.593,-9.871318803,0.226593163,1.329658146
1212736.359,-9.795778961,0.023826692,1.19133462
1212746.124,-9.792150295,0.031084025,1.554201267
1212755.89,-9.871455886,-0.013681003,1.31594985
1212765.656,-10.21656812,0.108402224,1.420111186
1212775.421,-10.0614082,0.03102975,1.551487521
1212785.187,-10.21656812,0.108402224,1.420111186
1212794.952,-10.06530297,0.263240213,1.162010653
1212804.718,-10.02446279,0.307997488,1.399874392
1212814.484,-10.17980415,0.185007095,1.250354725
1212824.249,-9.947084429,0.268908066,1.445403301
1212834.015,-10.10126057,0.188248083,1.412404147
1212843.781,-10.10175246,0.267264311,1.363215557
1212853.546,-10.06476673,0.144312686,1.21563428
1212863.312,-10.10193389,0.066901444,1.345072224
1212873.077,-9.986670699,0.186658603,1.332930148
1212882.843,-10.13972599,0.188240329,1.412016469
1212892.609,-9.909066549,0.308020749,1.401037426
1212902.374,-10.10112752,0.068514185,1.425709257
1212912.14,-10.06239197,0.189062207,1.453110341
1212921.906,-10.02298714,0.070948803,1.547440162
1212931.671,-10.10014375,-0.089518271,1.524086437
1212941.437,-10.13856078,0.23057074,1.528536981
1212951.202,-10.21656812,0.108402224,1.420111186
1212960.968,-10.25597296,0.226515627,1.325781365
1212970.734,-10.02518046,0.226562149,1.328107433
1212980.499,-10.25409008,0.350281377,1.514068836
1212990.265,-10.25601731,0.266426927,1.321346328
1213000.031,-10.17877199,0.347071403,1.353570127
1213009.796,-10.0634201,0.387005962,1.350298124
1213019.562,-9.909022198,0.268109449,1.405472463
1213029.327,-10.02540222,0.426118645,1.305932249
1213039.093,-9.869972165,0.46928644,1.46432199
1213048.859,-9.79505726,0.465270095,1.263504765
1213058.624,-9.835046715,0.382214262,1.110713095
1213068.39,-9.873689532,0.541851705,1.09258527
1213078.156,-9.911215526,0.423722795,1.186139735
1213087.921,-10.02450714,0.347908787,1.395439356
1213097.687,-10.02535787,0.386207346,1.310367286
1213107.452,-10.14151613,0.344660045,1.233002256
1213117.218,-10.10067999,0.029409256,1.47046281
1213126.984,-10.21678987,0.30795872,1.397936002
1213136.749,-10.06328704,0.267272065,1.363603235
1213146.515,-10.14021788,0.267256558,1.362827879
1213156.281,-10.02652307,0.343876935,1.193846774
1213166.046,-10.13927442,0.509143464,1.457173207
1213175.812,-10.06382328,0.386199592,1.309979608
1213185.577,-10.17913083,0.306353733,1.317686648
1213195.343,-10.1392341,0.109224101,1.461205058
1213205.109,-10.10090174,0.228965753,1.448287626
1213214.874,-9.986444915,0.34711017,1.355508517
1213224.64,-10.0635975,0.54665116,1.332557977
1213234.406,-10.10076466,0.469239918,1.461995922
1213244.171,-10.10161538,0.507538477,1.376923852
1213253.937,-10.02338629,0.430150497,1.507524831
1213263.702,-10.02114861,0.234625852,1.731292596
1213273.468,-10.0215518,0.233819482,1.69097408
1213283.234,-9.945249936,0.072577051,1.628852551
1213292.999,-9.756237042,0.145987455,1.299372737
1213302.765,-10.06310964,0.107626868,1.381343382
1213312.531,-9.870197948,0.308834872,1.441743621
1213322.296,-10.1003655,0.110038225,1.501911253
1213332.062,-10.10130492,0.228159382,1.40796911
1213341.827,-9.985416793,0.149166415,1.458320734
1213351.593,-10.10094609,0.268877052,1.443852589
1213361.359,-9.947620665,0.387835593,1.391779675
1213371.124,-9.909066549,0.308020749,1.401037426
1213380.89,-10.06256937,0.348707404,1.435370194
1213390.656,-10.14021788,0.267256558,1.362827879
1213400.421,-9.986670699,0.186658603,1.332930148
1213410.187,-9.946681243,0.269714436,1.485721818
1213419.952,-9.832942089,0.306423515,1.32117575
1213429.718,-9.947531964,0.308012995,1.400649748
1213439.484,-9.94883022,0.385416483,1.270824126
1213449.249,-9.79425089,0.466882836,1.344141797
1213459.015,-9.21785428,0.265829902,1.291495119
1213468.781,-9.910812341,0.424529165,1.226458251
1213478.546,-9.985727245,0.42854551,1.427275476
1213488.312,-10.02370077,0.349521528,1.476076388
1213498.077,-10.02535787,0.386207346,1.310367286
1213507.843,-9.871048669,0.347133431,1.356671551
1213517.609,-10.06314996,0.507546231,1.37731153
1213527.374,-10.10157103,0.467627178,1.381358889
1213537.14,-10.52357377,0.189775534,1.488776721
1213546.906,-10.48560024,0.268799516,1.439975809
1213556.671,-10.33281509,0.146677522,1.333876083
1213566.437,-10.29426097,0.066862677,1.343133834
1213576.202,-10.17895342,0.146708536,1.335426795
1213585.968,-9.947354563,0.148367798,1.418389896
1213595.734,-9.796133764,0.343117087,1.155854326
1213605.499,-9.794791158,0.2258023,1.290114985
1213615.265,-10.1034539,0.343861428,1.193071418
1213625.031,-9.642449505,0.502793298,1.139664891
1213634.796,-9.87118172,0.466867329,1.343366441
1213644.562,-10.10121219,0.508344847,1.417242369
1213654.327,-10.10112349,0.428522249,1.426112442
1213664.093,-10.21755189,0.26643468,1.321734006
1213673.859,-10.17881634,0.386982702,1.34913509
1213683.624,-10.17886069,0.426894001,1.344700053
1213693.39,-10.10265156,-0.014533895,1.273305265
1213703.156,-10.17962271,0.385369961,1.268498058
1213712.921,-10.17913083,0.306353733,1.317686648
1213722.687,-10.25444892,0.309563707,1.478185357
1213732.452,-10.3706475,0.66793577,1.396788475
1213742.218,-10.36984516,0.309540446,1.477022323
1213751.984,-10.25583587,0.466789793,1.339489661
1213761.749,-10.37257876,0.224073256,1.203662782
1213771.515,-10.56468005,0.384486055,1.224302761
1213781.281,-10.40996767,0.346218511,1.310925543
1213791.046,-10.17760679,0.389401813,1.470090639
1213800.812,-10.06283951,0.228167136,1.408356788
1213810.577,-9.94874152,0.305593884,1.2796942
1213820.343,-9.909159281,0.027835283,1.391764168
1213830.109,-9.947939181,-0.052801439,1.359928047
1213839.874,-10.33183131,-0.011354935,1.432253262
1213849.64,-10.13932684,-0.170961364,1.4519318
1213859.406,-10.10090577,-0.131042311,1.447884441
1213869.171,-9.83213975,-0.051971808,1.401409597
1213878.937,-9.60300435,-0.015239469,1.238026564
1213888.702,-9.371228086,-0.173225404,1.338729812
1213898.468,-9.716654804,-0.131771146,1.411442705
1213908.234,-9.562478658,-0.051111163,1.44444186
1213917.999,-9.485011592,-0.170023183,1.498840843
1213927.765,-9.792464779,-0.049544944,1.522752824
1213937.531,-9.642183403,0.263325502,1.166275112
1213947.296,-9.716743504,-0.051948547,1.402572631
1213957.062,-9.792460748,0.31046312,1.523156009
1213966.827,-10.02267265,0.151577772,1.578888605
1213976.593,-10.17613113,0.152353128,1.617656409
1213986.359,-9.946951377,0.149174168,1.458708412
1213996.124,-10.02114861,0.234625852,1.731292596
1214005.89,-10.10080901,0.509151218,1.457560885
1214015.656,-10.1763045,0.672006389,1.600319447
1214025.421,-10.25363851,0.671184511,1.559225574
1214035.187,-10.33061369,0.711080304,1.554015181
1214044.952,-10.0229831,0.430956867,1.547843347
1214054.718,-9.945560389,0.351956146,1.597807293
1214064.484,-9.94578214,0.551512642,1.575632109
1214074.249,-9.829176339,0.553955014,1.697750692
1214084.015,-9.713917176,0.313704109,1.685205431
1214093.781,-9.562293193,0.509259768,1.462988377
1214103.546,-9.714586464,0.552365534,1.618276694
1214113.312,-9.906199902,0.273754042,1.687702077
1214123.077,-9.946189357,0.190698208,1.534910408
1214132.843,-10.0616743,0.270497546,1.5248773
1214142.609,-10.29161607,0.232152466,1.607623301
1214152.374,-10.44453831,0.114000295,1.700014732
1214162.14,-10.25234429,0.23377296,1.688648012
1214171.906,-10.41028215,0.265589542,1.2794771
1214181.671,-10.40952013,0.307113582,1.355679096
1214191.437,-10.06319431,0.54745753,1.372876494
1214201.202,-9.873645182,0.501940406,1.097020307
1214210.968,-9.948737488,0.665601948,1.280097385
1214220.734,-9.912646833,0.62086018,1.043009002
1214230.499,-10.02804308,0.620836919,1.041845968
1214240.265,-10.02665209,0.823618897,1.180944849
1214250.031,-10.06619401,0.701458135,1.072906732
1214259.796,-10.21929365,0.74295116,1.147558016
1214269.562,-9.951200949,0.700675025,1.03375125
1214279.327,-9.951692835,0.779691253,0.98456266
1214289.093,-10.22162406,0.65829034,0.914516992
1214298.859,-9.836611074,0.699085545,0.954277252
1214308.624,-10.14330627,0.501079761,1.053988044
1214318.39,-10.02759554,0.58173199,1.086599521
1214328.156,-10.14304017,0.261611965,1.080598265
1214337.921,-10.21902755,0.503483365,1.174168237
1214347.687,-10.10434897,0.422071286,1.103564312
1214357.452,-9.988549541,0.422900917,1.145045862
1214367.218,-9.906647438,0.31285897,1.642948524
1214376.984,-9.718307863,0.264922736,1.246136788
1214386.749,-9.793940437,0.187503741,1.375187055
1214396.515,-9.639002272,0.309687764,1.484388205
1214406.281,-9.678810294,0.426994797,1.349739868
1214416.046,-9.640481961,0.186728385,1.336419251
1214425.812,-9.71490498,0.111728501,1.586425066
1214435.577,-9.638913571,0.229865166,1.493258279
1214445.343,-9.832450203,0.227407287,1.37036434
1214455.109,-9.715396866,0.19074473,1.537236476
1214464.874,-10.02204772,-0.047172354,1.641382305
1214474.64,-9.982102611,0.075794779,1.789738938
1214484.406,-10.17528041,0.11405457,1.702728478
1214494.171,-10.21419336,0.153151745,1.657587247
1214503.937,-10.06180736,0.390231444,1.51157219
1214513.702,-10.0229831,0.430956867,1.547843347
1214523.468,-10.21553596,0.270466532,1.523326588
1214533.234,-9.948471385,0.426134152,1.306707605
1214542.999,-10.10165973,0.547449776,1.372488815
1214552.765,-10.06135982,0.351126515,1.556325743
1214562.531,-9.87275011,0.423730548,1.186527413
1214572.296,-10.02495468,0.387013716,1.350685802
1214582.062,-9.79653695,0.342310716,1.11553581
1214591.827,-9.985686927,0.028626147,1.431307328
1214601.593,-9.910413187,0.065327472,1.266373582
1214611.359,-9.757043412,0.144374714,1.218735704
1214621.124,-9.985195041,-0.050390082,1.480495918
1214630.89,-10.10139766,-0.052026083,1.398695851
1214640.656,-10.02563203,-0.094340986,1.282950695
1214650.421,-10.17944934,-0.1342833,1.28583502
1214660.187,-10.0252732,-0.053623317,1.318834175
1214669.952,-10.14062509,-0.093557876,1.322106177
1214679.718,-10.02384189,-0.250760702,1.461964907
1214689.484,-9.987972987,-0.095945973,1.202701341
1214699.249,-9.831426112,-0.330544533,1.472773371
1214709.015,-10.25333612,-0.328210711,1.589464462
1214718.781,-10.10140169,-0.412034147,1.398292666
1214728.546,-10.02370884,-0.3704946,1.475270018
1214738.312,-9.869758477,-0.450286184,1.485690804
1214748.077,-10.21558838,-0.409638296,1.518085181
1214757.843,-10.09790607,-0.285042916,1.747854202
1214767.609,-9.831736565,-0.051165438,1.441728114
1214777.374,-10.02276539,-0.128607693,1.569615346
1214787.14,-10.17841719,0.027781008,1.389050421
1214796.906,-10.17640126,0.03181286,1.590643003
1214806.671,-9.830930195,-0.049552697,1.522365146
1214816.437,-10.10157506,0.107619114,1.380955704
1214826.202,-9.984610422,0.150779155,1.538957766
1214835.968,-10.02401526,0.268892559,1.444627945
1214845.734,-10.02235817,0.232206741,1.610337047
1214855.499,-9.754442868,0.349575803,1.478790134
1214865.265,-10.13865352,-0.049614726,1.519263722
1214875.031,-9.869839114,0.349552542,1.4776271
1214884.796,-9.906828871,0.112496104,1.624805192
1214894.562,-9.869750413,0.269729943,1.486497174
1214904.327,-9.98532406,0.42935188,1.467593993
1214914.093,-9.792730882,0.189922852,1.496142603
1214923.859,-9.870197948,0.308834872,1.441743621
1214933.624,-9.946818326,0.02944027,1.472013522
1214943.39,-9.831107596,0.1100925,1.504624999
1214953.156,-9.791968862,0.231446892,1.572344599
1214962.921,-10.02334597,0.030231134,1.511556682
1214972.687,-9.869435928,0.350358912,1.517945617
1214982.452,-10.02397091,0.22898126,1.449062982
1214992.218,-10.10022842,0.350312391,1.515619548
1215001.984,-9.945830523,0.231415878,1.570793887
1215011.749,-9.908215828,0.26972219,1.486109496
1215021.515,-9.792819582,0.269745451,1.48727253
1215031.281,-9.947443263,0.228190396,1.409519822
1215041.046,-9.908441612,0.109270623,1.463531127
1215050.812,-9.948116583,0.106843758,1.3421879
1215060.577,-10.0254506,0.106021881,1.301094027
1215070.343,-9.869528661,0.070173447,1.508672358
1215080.109,-9.756684577,0.185092384,1.254619184
1215089.874,-10.02366046,-0.050397835,1.48010824
1215099.64,-10.06208152,-0.090316888,1.484155598
1215109.406,-9.949370488,0.144335946,1.216797314
1215119.171,-10.06329108,-0.092735999,1.36320005
1215128.937,-9.947265862,0.068545199,1.427259969
1215138.702,-10.10081304,0.149143154,1.4571577
1215148.468,-9.986311864,0.227376273,1.368813628
1215158.234,-10.29332155,-0.05125848,1.437075977
1215167.999,-10.02540625,0.066110581,1.305529064
1215177.765,-10.10095012,-0.091131012,1.443449404
1215187.531,-9.871588937,0.106052895,1.30264474
1215197.296,-9.947310212,0.108456499,1.422824932
1215207.062,-9.984924907,0.070150186,1.507509324
1215216.827,-10.0603317,0.153182759,1.659137959
1215226.593,-10.13838338,0.070925543,1.546277128
1215236.359,-10.02419669,0.068529692,1.426484613
1215246.124,-10.29134997,-0.00731533,1.634233522
1215255.89,-10.29005172,-0.084718817,1.764059144
1215265.656,-10.21356842,-0.045598381,1.720080947
1215275.421,-10.02298714,0.070948803,1.547440162
1215285.187,-10.09687392,-0.122978608,1.851069604
1215294.952,-10.02164453,-0.046365984,1.681700821
1215304.718,-9.90665147,-0.047149093,1.642545339
1215314.484,-9.94556442,-0.008051918,1.597404108
1215324.249,-9.90669582,-0.007237794,1.638110302
1215334.015,-9.905260481,0.155632884,1.78164422
1215343.781,-9.908711746,-0.011269646,1.436517721
1215353.546,-9.752116489,0.074228559,1.711427973
1215363.312,-10.02468858,0.14754592,1.377296023
1215373.077,-10.0614082,0.03102975,1.551487521
1215382.843,-9.868363456,0.112503857,1.62519287
1215392.609,-9.830075442,0.272156808,1.607840401
1215402.374,-9.945963574,0.351149776,1.557488777
1215412.14,-10.10134927,0.268070681,1.403534073
1215421.906,-9.907006273,0.272141301,1.607065045
1215431.671,-9.947310212,0.108456499,1.422824932
1215441.437,-9.832002667,0.188302358,1.415117893
1215451.202,-9.561398122,0.43104991,1.552495484
1215460.968,-9.870468082,0.188294604,1.414730215
1215470.734,-9.753144612,0.272172315,1.608615757
1215480.499,-9.869347228,0.270536314,1.52681569
1215490.265,-9.946145007,0.150786909,1.539345444
1215500.031,-9.793625953,0.26813271,1.406635497
1215509.796,-9.792238996,0.110906624,1.545331193
1215519.562,-9.715396866,0.19074473,1.537236476
1215529.327,-9.715529917,0.310478627,1.523931365
1215539.093,-9.944709668,0.313657587,1.682879362
1215548.859,-9.830793112,0.190721469,1.536073442
1215558.624,-10.099289,0.232191234,1.609561691
1215568.39,-10.06234762,0.149150908,1.457545378
1215578.156,-10.17662301,0.231369356,1.568467819
1215587.921,-10.33200872,0.148290262,1.414513115
1215597.687,-10.25471905,0.189023439,1.451171951
1215607.452,-9.985864328,0.188271344,1.413567181
1215617.218,-10.13802455,0.111643212,1.582160607
1215626.984,-10.0615856,0.190674947,1.533747373
1215636.749,-10.02397091,0.22898126,1.449062982
1215646.515,-10.1004542,0.189860824,1.493041179
1215656.281,-10.02378948,0.429344126,1.467206314
1215666.046,-10.1771149,0.310385585,1.519279229
1215675.812,-10.02486598,0.307191118,1.359555876
1215685.577,-9.947757748,0.147561428,1.378071379
1215695.343,-9.908619013,0.26891582,1.44579098
1215705.109,-9.794702457,0.145979701,1.298985059
1215714.874,-9.754039683,0.350382173,1.519108651
1215724.64,-9.948116583,0.106843758,1.3421879
1215734.406,-9.984074186,0.031851628,1.592581393
1215744.171,-9.985686927,0.028626147,1.431307328
1215753.937,-10.02383786,0.109247362,1.462368093
1215763.702,-9.831107596,0.1100925,1.504624999
1215773.468,-10.02222512,0.112472843,1.623642158
1215783.234,-10.06239197,0.189062207,1.453110341
1215792.999,-9.908800447,0.068552953,1.427647647
1215802.765,-9.791835811,0.111712994,1.58564971
1215812.531,-9.944846751,0.073383421,1.669171067
1215822.296,-9.946548192,0.149980539,1.499026928
1215832.062,-9.984162887,0.111674226,1.583711319
1215841.827,-9.714276011,0.272986439,1.649321951
1215851.593,-9.791880161,0.151624293,1.581214673
1215861.359,-9.794254922,0.106874772,1.343738612
1215871.124,-9.906607119,-0.087060392,1.646980376
1215880.89,-10.02115264,-0.125382212,1.730889411
1215890.656,-9.753281695,0.031898149,1.594907461
1215900.421,-9.868230405,-0.00723004,1.63849798
1215910.187,-9.984747505,-0.089495011,1.525249471
1215919.952,-10.02003179,-0.043140502,1.842974886
1215929.718,-10.09888985,-0.12701046,1.649477022
1215939.484,-9.983179115,-0.04635823,1.682088499
1215949.249,-9.983493599,-0.126987199,1.650640056
1215959.015,-10.02195901,-0.126994952,1.650252378
1215968.781,-10.02442248,-0.091921875,1.403906244
1215978.546,-10.32887597,-0.12544424,1.727787987
1215988.312,-10.1767601,-0.00890481,1.554759523
1215998.077,-10.10095012,-0.091131012,1.443449404
1216007.843,-10.06212587,-0.050405589,1.479720562
1216017.609,-10.09982927,-0.008889302,1.555534879
1216027.374,-9.98506199,-0.170123979,1.493801028
1216037.14,-9.985239391,-0.010478782,1.476060881
1216046.906,-10.17626821,-0.087921038,1.603948113
1216056.671,-9.984566072,0.110867856,1.543392803
1216066.437,-9.984251588,0.191496825,1.574841246
1216076.202,-9.9835823,-0.0471646,1.641769983
1216085.968,-9.984162887,0.111674226,1.583711319
1216095.734,-9.983671001,0.032657998,1.632899909
1216105.499,-9.868097354,-0.126963938,1.651803091
1216115.265,-9.984703155,-0.12940631,1.529684508
1216125.031,-9.985864328,0.188271344,1.413567181
1216134.796,-10.05961806,-0.125389965,1.730501733
1216144.562,-10.13802455,0.111643212,1.582160607
1216154.327,-9.868992425,-0.04875408,1.562295984
1216164.093,-9.945697472,0.11168198,1.584098997
1216173.859,-9.83057136,-0.008835027,1.558248626
1216183.624,-10.02334597,0.030231134,1.511556682
1216193.39,-9.944935452,0.15320602,1.660300993
1216203.156,-9.984743473,0.270513053,1.525652656
1216212.921,-9.947443263,0.228190396,1.409519822
1216222.687,-9.908977848,0.22819815,1.4099075
1216232.452,-9.793984788,0.22741504,1.370752018
1216242.218,-9.794029138,0.26732634,1.366316981
1216251.984,-9.870464051,0.548302668,1.4151334
1216261.749,-9.640211827,0.307268653,1.363432656
1216271.515,-9.793896087,0.147592442,1.379622091
1216281.281,-9.79348887,0.508406876,1.420343793
1216291.046,-9.907856993,0.31043986,1.521992975
1216300.812,-9.832627604,0.387052484,1.352624193
1216310.577,-9.756011258,0.306439022,1.321951106
1216320.343,-9.870153598,0.268923573,1.446178658
1216330.109,-9.754846053,0.348769432,1.438471618
1216339.874,-9.984295938,0.231408124,1.570406209
1216349.64,-9.832002667,0.188302358,1.415117893
1216359.406,-10.02209207,-0.007261055,1.636947268
1216369.171,-9.906111202,0.193931443,1.696572151
1216378.937,-9.870064897,0.189100975,1.455048731
1216388.702,-9.946725594,0.309625736,1.481286781
1216398.468,-10.1001881,-0.049606972,1.5196514
1216408.234,-10.02352337,0.189876331,1.493816535
1216417.999,-10.09991797,0.070933296,1.546664806
1216427.765,-10.17523606,0.07414327,1.707163515
1216437.531,-10.02441844,0.268086189,1.404309429
1216447.296,-10.09951478,0.071739666,1.586983322
1216457.062,-10.13977034,0.228151629,1.407581432
1216466.827,-10.17657866,0.191458057,1.572902856
1216476.593,-10.02226947,0.152384142,1.619207121
1216486.359,-9.908304529,0.349544788,1.477239422
1216496.124,-9.946995728,0.189085468,1.454273375
1216505.89,-9.86939561,-0.049560451,1.521977468
1216515.656,-9.908485962,0.149181922,1.45909609
1216525.421,-10.02307584,0.150771402,1.538570088
1216535.187,-9.869214177,0.150802416,1.5401208
1216544.952,-9.906336985,0.033479876,1.673993782
1216554.718,-9.946951377,0.149174168,1.458708412
1216564.484,-10.25579152,0.426878494,1.343924697
1216574.249,-9.984876525,0.390246951,1.512347546
1216584.015,-10.02235817,0.232206741,1.610337047
1216593.781,-10.02370077,0.349521528,1.476076388
1216603.546,-10.13833903,0.031014243,1.550712165
1216613.312,-10.17800997,0.388595442,1.429772123
1216623.077,-10.06203314,0.229779876,1.48899382
1216632.843,-9.908663364,0.308827119,1.441355943
1216642.609,-9.985191009,0.309617982,1.480899103
1216652.374,-9.946278058,0.270520807,1.526040334
1216662.14,-9.909110899,0.347932048,1.39660239
1216671.906,-9.753680848,0.391099843,1.55499213
1216681.671,-9.986174781,0.467650438,1.382521923
1216691.437,-9.640344878,0.427002551,1.350127546
1216701.202,-9.793803354,0.427777907,1.38889535
1216710.968,-9.869706063,0.229818644,1.490932211
1216720.734,-9.907498159,0.351157529,1.557876455
1216730.499,-9.868585208,0.312060354,1.603017686
1216740.265,-9.794029138,0.26732634,1.366316981
1216750.031,-9.985505493,0.228989013,1.44945066
1216759.796,-9.755293589,0.387874361,1.393718065
1216769.562,-9.948293984,0.266488955,1.324447753
1216779.327,-9.983489568,0.233020865,1.651043242
1216789.093,-10.02199933,0.272924411,1.646220527
1216798.859,-9.985191009,0.309617982,1.480899103
1216808.624,-10.06082358,0.232198987,1.609949369
1216818.39,-10.25350949,0.19144255,1.5721275
1216828.156,-10.06109372,0.111658719,1.582935963
1216837.921,-10.25400138,0.270458778,1.52293891
1216847.687,-10.13864948,0.310393338,1.519666907
1216857.452,-10.06135982,0.351126515,1.556325743
1216867.218,-10.05907779,0.115690571,1.784528545
1216876.984,-10.06073488,0.152376389,1.618819443
1216886.749,-10.02218077,0.072561544,1.628077194
1216896.515,-10.25350949,0.19144255,1.5721275
1216906.281,-9.985057958,0.189884084,1.494204213
1216916.046,-9.907050623,0.3120526,1.602630008
1216925.812,-9.98527971,0.389440581,1.472029029
1216935.577,-9.907635241,0.110883363,1.544168159
1216945.343,-9.946548192,0.149980539,1.499026928
1216955.109,-9.832587286,-0.012866879,1.356656044
1216964.874,-9.947624697,0.02782753,1.39137649
1216974.64,-10.13811325,0.191465811,1.573290534
1216984.406,-10.02397091,0.22898126,1.449062982
1216994.171,-10.17868329,0.267248804,1.362440201
1217003.937,-10.10090174,0.228965753,1.448287626
1217013.702,-10.21643104,0.34867639,1.433819482
1217023.468,-10.17648996,0.111635459,1.581772929
1217033.234,-9.794343622,0.186697371,1.334868538
1217042.999,-9.869258527,0.190713715,1.535685764
1217052.765,-10.02074946,-0.124575841,1.771207927
1217062.531,-10.06217022,-0.01049429,1.475285525
1217072.296,-10.05988416,0.11407783,1.703891512
1217082.062,-9.870242299,0.348746172,1.437308584
1217091.827,-9.906961922,0.232230002,1.611500081
1217101.593,-9.983626651,-0.007253301,1.637334946
1217111.359,-10.0228057,0.27131167,1.565583494
1217121.124,-10.02168888,-0.006454684,1.677265784
1217130.89,-9.791343925,0.032696766,1.634838299
1217140.656,-9.792775232,0.229834151,1.491707567
1217150.421,-9.945338637,0.15239965,1.619982477
1217160.187,-10.02226947,0.152384142,1.619207121
1217169.952,-9.869169826,0.110891117,1.544555837
1217179.718,-10.10121622,0.148336784,1.416839183
1217189.484,-10.17725198,0.070111419,1.505570933
1217199.249,-10.09861971,-0.006470191,1.676490428
1217209.015,-10.02392656,0.18906996,1.453498019
1217218.781,-10.14187497,0.303942376,1.197118777
1217228.546,-9.945382987,0.192310949,1.61554744
1217238.312,-10.06207749,0.269691176,1.484558784
1217248.077,-10.02482163,0.267279818,1.363990913
1217257.843,-10.29341025,0.028564118,1.428205904
1217267.609,-9.908485962,0.149181922,1.45909609
1217277.374,-10.33281509,0.146677522,1.333876083
1217287.14,-9.947040078,0.228996767,1.449838338
1217296.906,-9.946592543,0.189891838,1.494591891
1217306.671,-10.10134927,0.268070681,1.403534073
1217316.437,-10.02410396,0.348715157,1.435757872
1217326.202,-9.9868481,0.3463038,1.315190001
1217335.968,-9.947531964,0.308012995,1.400649748
1217345.734,-9.870915618,0.227399533,1.369976662
1217355.499,-9.910590589,0.224972669,1.248633435
1217365.265,-9.870153598,0.268923573,1.446178658
1217375.031,-9.678721593,0.347172199,1.358609942
1217384.796,-9.715219465,0.031099532,1.554976623
1217394.562,-9.832135718,0.308036256,1.401812783
1217404.327,-10.02401526,0.268892559,1.444627945
1217414.093,-9.947620665,0.387835593,1.391779675
1217423.859,-9.90843758,0.469278686,1.463934312
1217433.624,-9.946902995,0.469270933,1.463546634
1217443.39,-9.86956898,0.47009281,1.504640506
1217453.156,-9.985594194,0.308811612,1.440580587
1217462.921,-10.02522481,0.266473448,1.323672397
1217472.687,-9.831103564,0.470100564,1.505028184
1217482.452,-9.871274453,0.186681864,1.334093182
1217492.218,-9.793355819,0.388672978,1.433648903
1217501.984,-9.794206539,0.426971537,1.348576834
1217511.749,-9.946007924,0.391061075,1.55305374
1217521.515,-9.907099005,-0.008044164,1.597791786
1217531.281,-9.947846448,0.227384026,1.369201306
1217541.046,-10.099289,0.232191234,1.609561691
1217550.812,-10.10072031,0.429328619,1.466430958
1217560.577,-10.05974708,0.354351996,1.717599808
1217570.343,-9.792101913,0.35118079,1.559039489
1217580.109,-9.94721748,0.388641964,1.432098191
1217589.874,-10.13864948,0.310393338,1.519666907
1217599.64,-9.983533918,0.272932164,1.646608205
1217609.406,-9.907945694,0.390262458,1.513122902
1217619.171,-10.1770262,0.230562986,1.528149303
1217628.937,-9.907139324,0.391875199,1.593759934
1217638.702,-9.949144705,0.304787514,1.239375683
1217648.468,-9.983892753,0.232214495,1.610724725
1217658.234,-9.985235359,0.349529281,1.476464066
1217667.999,-9.946366759,0.350343405,1.51717026
1217677.765,-10.02374512,0.389432827,1.471641351
1217687.531,-9.94578214,0.551512642,1.575632109
1217697.296,-10.02074543,0.235432222,1.771611112
1217707.062,-10.02316454,0.230594,1.529700015
1217716.827,-10.10130492,0.228159382,1.40796911
1217726.593,-10.02276135,0.231400371,1.570018531
1217736.359,-9.946278058,0.270520807,1.526040334
1217746.124,-10.13873819,0.390215937,1.510796833
1217755.89,-9.907094973,0.351963899,1.598194971
1217765.656,-10.17738503,0.189845316,1.492265823
1217775.421,-9.754309817,0.229841905,1.492095245
1217785.187,-9.714094578,0.473349306,1.667465283
1217794.952,-9.794162189,0.387060237,1.353011871
1217804.718,-9.59995627,0.150856691,1.542834547
1217814.484,-9.792416397,0.270551821,1.527591046
1217824.249,-10.2902775,-0.245170384,1.741480775
1217834.015,-10.48251588,-0.325031751,1.748412458
1217843.781,-10.09843828,0.193892675,1.694633761
1217853.546,-10.09893016,0.272908903,1.645445171
1217863.312,-10.13569414,0.196304033,1.815201631
1217873.077,-10.13802455,0.111643212,1.582160607
1217882.843,-10.17340156,-0.122187745,1.890612764
1217892.609,-10.02074946,-0.124575841,1.771207927
1217902.374,-10.21361277,-0.005687082,1.71564591
1217912.14,-10.21544726,0.190643933,1.532196661
1217921.906,-10.09870841,0.073352407,1.667620355
1217931.671,-9.943862979,-0.084649035,1.767548247
1217941.437,-10.06328704,0.267272065,1.363603235
1217951.202,-10.10085739,0.189054453,1.452722663
1217960.968,-10.06154125,0.150763648,1.53818241
1217970.734,-9.947576314,0.347924294,1.396214712
1217980.499,-10.02419266,0.428537756,1.426887798
1217990.265,-10.02303149,0.110860103,1.543005125
1218000.061,-9.986400564,0.307198871,1.359943554
1218009.796,-10.10022842,0.350312391,1.515619548
1218019.562,-9.830656029,0.430995635,1.549781737
1218029.327,-10.06140417,0.391037814,1.551890706
1218039.093,-10.13869384,0.350304637,1.51523187
1218048.859,-9.831147915,0.510011863,1.500593147
1218058.624,-9.869750413,0.269729943,1.486497174
1218068.39,-10.06243229,0.58898157,1.449078489
1218078.156,-9.946411109,0.390254704,1.512735224
1218087.921,-10.21683422,0.347870019,1.393500965
1218097.687,-9.792863933,0.30965675,1.482837493
1218107.452,-9.94878587,0.345505183,1.275259163
1218117.218,-10.1005429,0.269683422,1.484171106
1218126.984,-10.13645616,0.154779993,1.738999636
1218136.749,-9.946769944,0.349537035,1.476851744
1218146.515,-9.908929466,0.548294914,1.414745722
1218156.281,-9.946902995,0.469270933,1.463546634
1218166.046,-9.946052275,0.430972374,1.548618703
1218175.812,-9.946991696,0.549093531,1.45467656
1218185.577,-10.10103479,0.34869965,1.434982516
1218195.343,-9.830567328,0.351173036,1.558651811
1218205.109,-9.871314771,0.586601227,1.330061331
1218214.874,-10.06346445,0.426917262,1.345863088
1218224.64,-10.02423701,0.468449055,1.422452761
1218234.406,-10.06149287,0.470860413,1.543020632
1218244.171,-9.791428594,0.472527428,1.626371411
1218253.937,-9.79429524,0.506794135,1.33970676
1218263.702,-9.908570631,0.589012584,1.450629201
1218273.468,-10.0228944,0.351134268,1.556713421
1218283.234,-9.947665015,0.427746893,1.387344638
1218292.999,-9.946947346,0.509182232,1.459111597
1218302.765,-9.947842417,0.58739209,1.369604491
1218312.531,-9.909780187,0.586593473,1.329673653
1218322.296,-9.98527971,0.389440581,1.472029029
1218332.062,-9.947798066,0.547480791,1.374039528
1218341.827,-9.98456204,0.47087592,1.543795988
1218351.593,-10.10170408,0.587361076,1.368053779
1218361.359,-9.985142627,0.629714746,1.485737325
1218371.124,-10.02343064,0.470061796,1.503089794
1218380.89,-9.71584037,0.589857722,1.492886108
1218390.656,-9.986219131,0.507561738,1.378086886
1218400.421,-9.909018167,0.628117513,1.405875648
1218410.187,-9.793710622,0.707963372,1.398168609
1218419.952,-9.793218736,0.628947144,1.447357199
1218429.718,-9.831103564,0.470100564,1.505028184
1218439.484,-10.10174843,0.627272375,1.363618742
1218449.249,-10.17702217,0.59057105,1.528552488
1218459.015,-10.25601327,0.62643499,1.321749513
1218468.781,-10.17814302,0.50832934,1.416467012
1218478.546,-10.13904864,0.669595032,1.479751576
1218488.312,-9.909377001,0.587399843,1.369992169
1218498.077,-10.17751405,0.669587278,1.479363898
1218507.843,-9.792682499,0.510019617,1.500980825
1218517.609,-10.02629729,0.504328503,1.216425143
1218527.374,-10.06149287,0.470860413,1.543020632
1218537.14,-9.986666667,0.546666667,1.333333333
1218546.906,-10.13887124,0.509949834,1.497491723
1218556.671,-10.06229924,0.469247672,1.4623836
1218566.437,-10.17702217,0.59057105,1.528552488
1218576.202,-9.984920875,0.43015825,1.507912509
1218585.968,-9.946052275,0.430972374,1.548618703
1218595.734,-9.870149566,0.628931637,1.446581843
1218605.499,-9.869298845,0.590633078,1.531653912
1218615.265,-9.8704197,0.508391369,1.419568437
1218625.031,-9.794472642,0.666439332,1.321966613
1218634.796,-9.640163445,0.627365418,1.368270878
1218644.562,-9.949499508,0.624077908,1.203895389
1218654.327,-9.832446171,0.58741535,1.370767525
1218664.093,-10.10174843,0.627272375,1.363618742
1218673.859,-10.10242175,0.505925736,1.29628682
1218683.624,-10.138335,0.391022307,1.55111535
1218693.39,-10.25664224,0.465177053,1.258852628
1218703.156,-10.14035093,0.386990455,1.349522768
1218712.921,-9.985235359,0.349529281,1.476464066
1218722.687,-10.06355315,0.50673986,1.336993014
1218732.452,-10.10161538,0.507538477,1.376923852
1218742.218,-9.987069852,0.545860296,1.293014817
1218751.984,-9.908929466,0.548294914,1.414745722
1218761.749,-9.985997379,0.308005241,1.40026207
1218771.515,-9.831909935,0.468487823,1.424391152
1218781.281,-9.910183372,0.585787103,1.289355136
1218791.046,-9.794073488,0.307237639,1.361881944
1218800.812,-9.871855039,0.34552069,1.276034519
1218810.577,-10.02374512,0.389432827,1.471641351
1218820.343,-10.02329759,0.350327898,1.516394904
1218830.109,-9.908840765,0.468472316,1.423615796
1218839.874,-10.02405961,0.308803858,1.440192909
1218849.64,-10.25475937,0.588942802,1.447140099
1218859.406,-10.10027277,0.39022369,1.511184511
1218869.171,-10.21629395,0.588950556,1.447527777
1218878.937,-10.10036147,0.470046289,1.502314438
1218888.702,-10.10099044,0.308788351,1.439417553
1218898.468,-10.06185171,0.430142743,1.507137153
1218908.234,-10.02383383,0.469255426,1.462771278
1218917.999,-10.17845751,0.427700371,1.38501857
1218927.765,-10.21585045,0.189837563,1.491878145
1218937.531,-9.91000597,0.426141906,1.307095284
1218947.296,-9.905885418,0.35438301,1.71915052
1218957.062,-10.06314996,0.507546231,1.37731153
1218966.827,-10.10013972,0.270489792,1.524489622
1218976.593,-10.09982523,0.351118761,1.555938065
1218986.359,-10.06261373,0.388618703,1.430935157
1218996.124,-10.10139363,0.307981981,1.399099036
1219005.89,-9.946769944,0.349537035,1.476851744
1219015.656,-10.09875276,0.113263706,1.663185318
1219025.421,-10.09897451,0.312820203,1.641010134
1219035.187,-10.10112349,0.428522249,1.426112442
1219044.952,-10.13694804,0.233796221,1.689811046
1219054.718,-10.17715925,0.350296884,1.514844192
1219064.484,-10.10000264,0.510763958,1.538197917
1219074.249,-10.06140417,0.391037814,1.551890706
1219084.015,-10.02119296,0.274537151,1.726857559
1219093.781,-9.98460639,0.510787219,1.539360952
1219103.546,-9.981562343,0.316875315,1.843765749
1219113.312,-10.06189606,0.470054042,1.502702116
1219123.077,-10.02405961,0.308803858,1.440192909
1219132.843,-10.10072031,0.429328619,1.466430958
1219142.609,-9.94730618,0.468464562,1.423228118
1219152.374,-10.10004699,0.550675258,1.533762881
1219162.14,-9.908123096,0.549907655,1.495382755
1219171.906,-10.10157103,0.467627178,1.381358889
1219181.671,-9.753725198,0.431011142,1.550557093
1219191.437,-9.830252844,0.431802005,1.590100254
1219201.202,-9.94645546,0.430166004,1.508300187
1219210.968,-10.02307181,0.510779465,1.538973273
1219220.734,-10.06158157,0.550683011,1.534150559
1219230.499,-9.90848193,0.509189986,1.459499275
1219240.265,-9.947931117,0.667214688,1.360734417
1219250.031,-10.06337575,0.347094663,1.354733161
1219259.796,-10.17881634,0.386982702,1.34913509
1219269.562,-9.947080397,0.62891613,1.445806487
1219279.327,-10.02441441,0.628094252,1.404712614
1219289.093,-10.09959945,0.511570329,1.578516434
1219298.859,-10.17661898,0.59137742,1.568871004
1219308.624,-10.09959945,0.511570329,1.578516434
1219318.39,-10.2536869,0.351087747,1.554387352
1219328.156,-10.10143394,0.707901344,1.395067185
1219337.921,-10.17666333,0.631288719,1.564435967
1219347.687,-9.870149566,0.628931637,1.446581843
1219357.452,-10.06041637,0.593013421,1.650671071
1219367.218,-10.02508773,0.506747614,1.337380692
1219376.984,-9.909691486,0.506770875,1.338543726
1219386.749,-9.870645484,0.347939801,1.396990068
1219396.515,-9.756007226,0.666447086,1.322354291
1219406.281,-9.910227722,0.625698402,1.2849201
1219416.046,-10.17505059,0.634514201,1.725710032
1219425.812,-10.17782854,0.588958309,1.447915455
1219435.577,-10.25341676,0.471628015,1.581400758
1219445.343,-10.06037605,0.193094058,1.654702922
1219455.109,-10.06167027,0.63050561,1.525280485
1219464.874,-10.06194041,0.509965342,1.498267079
1219474.64,-10.06265808,0.428530002,1.42650012
1219484.406,-10.21571337,0.430111729,1.505586441
1219494.171,-10.06100098,0.391844184,1.592209222
1219503.937,-10.02378948,0.429344126,1.467206314
1219513.702,-10.09978088,0.311207462,1.560373101
1219523.468,-10.17554651,0.353522365,1.676118257
1219533.234,-10.21526583,0.3910068,1.550339994
1219542.999,-9.98460639,0.510787219,1.539360952
1219552.765,-9.792190614,0.431003388,1.550169415
1219562.531,-9.985186977,0.669626046,1.481302288
1219572.296,-9.985904647,0.588190707,1.409535329
1219582.062,-9.753991301,0.670478937,1.523946873
1219591.827,-10.02374512,0.389432827,1.471641351
1219601.593,-9.792460748,0.31046312,1.523156009
1219611.359,-9.870016515,0.509197739,1.459886953
1219621.124,-9.945201554,0.392673815,1.633690772
1219630.89,-9.794206539,0.426971537,1.348576834
1219640.656,-10.17836881,0.347877773,1.393888643
1219650.421,-10.0992003,0.152368635,1.618431765
1219660.187,-10.10112349,0.428522249,1.426112442
1219669.952,-9.946814294,0.389448334,1.472416707
1219679.718,-10.06144852,0.430949113,1.547455669
1219689.484,-9.985009576,0.509980849,1.499042435
1219699.249,-10.13887124,0.509949834,1.497491723
1219709.015,-10.17827607,0.628063238,1.403161902
1219718.781,-10.13914137,0.389409566,1.470478317
1219728.546,-9.832583254,0.347141185,1.357059229
1219738.312,-9.947886767,0.627303389,1.365169454
1219748.077,-9.985993347,0.668013305,1.400665256
1219757.843,-10.21647539,0.388587689,1.429384445
1219767.609,-9.870685802,0.747859164,1.392958216
1219777.374,-9.984739442,0.630521117,1.526055841
1219787.14,-9.832623572,0.747060548,1.353027378
1219796.906,-9.984110473,0.791779055,1.588952727
1219806.671,-9.985634513,0.708730975,1.436548735
1219816.437,-9.833921829,0.824464035,1.223201755
1219826.202,-10.02365239,0.669618292,1.48091461
1219835.968,-9.910675258,0.664803331,1.240166546
1219845.734,-9.947753716,0.507569491,1.378474564
1219855.499,-10.06198476,0.549876641,1.493832042
1219865.265,-10.06260969,0.748626767,1.431338342
1219875.031,-10.10067192,0.749425384,1.47126918
1219884.796,-10.02401123,0.628900623,1.445031131
1219894.562,-9.947975468,0.707125988,1.35629938
1219904.327,-10.0636862,0.626473758,1.323687904
1219914.093,-10.10206291,0.546643406,1.332170299
1219923.859,-9.949455157,0.584166609,1.208330426
1219933.624,-10.02383383,0.469255426,1.462771278
1219943.39,-10.02401123,0.628900623,1.445031131
1219953.156,-10.13895994,0.589772433,1.488621649
1219962.921,-10.13878254,0.430127236,1.506361797
1219972.687,-10.06207346,0.629699239,1.484961969
1219982.452,-10.10085336,0.549062517,1.453125848
1219992.218,-10.29170478,0.311975065,1.598753227
1220001.984,-9.94645546,0.430166004,1.508300187
1220011.749,-9.90763121,0.470891427,1.544571344
1220021.515,-10.02423701,0.468449055,1.422452761
1220031.281,-10.06194041,0.509965342,1.498267079
1220041.046,-10.21584642,0.549845627,1.49228133
1220050.812,-10.13855675,0.590578803,1.528940166
1220060.577,-10.09982523,0.351118761,1.555938065
1220070.343,-10.02343064,0.470061796,1.503089794
1220080.109,-9.871000287,0.667230195,1.361509773
1220089.874,-9.755829825,0.506801889,1.340094438
1220099.64,-10.06265808,0.428530002,1.42650012
1220109.406,-9.869794763,0.309641243,1.482062137
1220119.171,-9.94726183,0.428553263,1.427663154
1220128.937,-9.911034092,0.624085661,1.204283067
1220138.702,-9.908123096,0.549907655,1.495382755
1220148.468,-9.987025501,0.505948997,1.297449854
1220158.234,-10.06189606,0.470054042,1.502702116
1220167.999,-10.06265808,0.428530002,1.42650012
1220177.765,-10.02428136,0.508360354,1.418017725
1220187.531,-9.831776884,0.348753925,1.437696262
1220197.296,-9.794698425,0.505987765,1.299388244
1220207.062,-9.832579222,0.707149248,1.357462415
1220216.827,-10.10336117,0.624046894,1.202344677
1220226.593,-10.02387818,0.509166725,1.458336241
1220236.359,-9.988682592,0.542634815,1.131740752
1220246.124,-10.13999209,0.427708125,1.385406248
1220255.89,-10.02544657,0.466029944,1.301497213
1220265.656,-9.948334303,0.666408318,1.320415901
1220275.421,-10.02616424,0.384594605,1.229730254
1220285.187,-9.988368108,0.623263784,1.163189195
1220294.952,-10.02513208,0.546658913,1.332945655
1220304.718,-10.21701162,0.507515216,1.375760818
1220314.484,-10.02450714,0.347908787,1.395439356
1220324.249,-9.986711017,0.586577966,1.328898297
1220334.015,-9.947842417,0.58739209,1.369604491
1220343.781,-9.986844068,0.706311864,1.315593186
1220353.546,-10.06337171,0.707102727,1.355136346
1220363.312,-10.14110891,0.705474479,1.273723958
1220373.077,-10.06413373,0.665578687,1.278934351
1220382.843,-10.06023896,0.433368224,1.668411218
1220392.609,-9.986174781,0.467650438,1.382521923
1220402.374,-10.25449327,0.349475006,1.47375032
1220412.14,-10.02387818,0.509166725,1.458336241
1220421.906,-10.13945182,0.668788661,1.43943306
1220431.671,-10.10049452,0.589780187,1.489009328
1220441.437,-10.17903809,0.586539198,1.326959906
1220451.202,-10.10210726,0.586554705,1.327735262
1220460.968,-10.02530948,0.70630411,1.315205508
1220470.734,-9.947931117,0.667214688,1.360734417
1220480.499,-9.909377001,0.587399843,1.369992169
1220490.265,-9.834639498,0.743028696,1.151434796
1220500.031,-10.06247664,0.628892869,1.444643453
1220509.796,-9.948781838,0.705513247,1.275662348
1220519.562,-9.948693137,0.625690648,1.284532422
1220529.327,-10.02566832,0.665586441,1.279322029
1220539.093,-10.06211781,0.669610539,1.480526932
1220548.859,-9.949229374,0.744618176,1.230908795
1220558.624,-10.0650288,0.743788545,1.189427244
1220568.39,-9.989307529,0.741384941,1.069247052
1220578.156,-10.1025548,0.625659634,1.282981709
1220587.921,-9.948289952,0.626497019,1.324850938
1220597.687,-9.910272072,0.665609701,1.280485063
1220607.452,-10.02522078,0.626481512,1.324075582
1220617.218,-9.986711017,0.586577966,1.328898297
1220626.984,-9.986219131,0.507561738,1.378086886
1220636.749,-10.14003644,0.467619424,1.380971211
1220646.515,-10.02356369,0.589795694,1.489784684
1220656.281,-9.909151218,0.747851411,1.392570538
1220666.046,-10.10125654,0.548256147,1.412807332
1220675.812,-10.21454816,0.472442139,1.622106953
1220685.577,-9.908885115,0.508383615,1.419180759
1220695.343,-10.13645213,0.514788056,1.739402821
1220705.109,-10.14030254,0.70708722,1.35436099
1220714.874,-10.10179278,0.667183674,1.359183705
1220724.64,-10.06274678,0.508352601,1.417630047
1220734.406,-10.13985501,0.667982291,1.399114543
1220744.171,-10.13802052,0.471651276,1.582563792
1220753.937,-10.10219596,0.666377304,1.318865189
1220763.702,-10.21539888,0.510740698,1.537034883
1220773.468,-10.25381995,0.470821645,1.541082242
1220783.234,-10.02396688,0.588989323,1.449466167
1220792.999,-10.06292418,0.667997798,1.399889899
1220802.765,-10.10295798,0.624853264,1.242663193
1220812.531,-9.948334303,0.666408318,1.320415901
1220822.296,-10.10349422,0.743780791,1.189039566
1220832.062,-10.0635975,0.54665116,1.332557977
1220841.827,-9.949229374,0.744618176,1.230908795
1220851.593,-10.02266862,0.511585836,1.57929179
1220861.359,-9.989755065,0.78048987,1.024493499
1220871.124,-9.873104913,0.743020942,1.151047118
1220880.89,-9.796085382,0.663213851,1.160692548
1220890.656,-10.02575702,0.745409039,1.270451955
1220900.421,-9.987291604,0.745416793,1.270839633
1220910.187,-10.06453692,0.664772317,1.238615834
1220919.952,-9.986573934,0.826852132,1.342606592
1220929.718,-9.985634513,0.708730975,1.436548735
1220939.484,-10.21974119,0.782056089,1.102804463
1220949.249,-10.21647135,0.748595753,1.42978763
1220959.015,-9.910630907,0.624892032,1.244601583
1220968.781,-9.986037698,0.707924604,1.396230219
1220978.546,-9.793351787,0.748681042,1.434052088
1220988.312,-10.06390795,0.826030254,1.30151272
1220998.077,-9.948870539,0.785335845,1.266792274
1221007.843,-10.02374109,0.749440891,1.472044536
1221017.609,-9.873596799,0.822037171,1.101858529
1221027.374,-10.06404503,0.585756088,1.287804424
1221037.14,-10.10241772,0.8659338,1.296690005
1221046.906,-10.10179278,0.667183674,1.359183705
1221056.671,-10.21593512,0.629668225,1.483411257
1221066.437,-10.21844293,0.704652602,1.232630085
1221076.202,-10.3329441,0.626419483,1.320974157
1221085.968,-10.02419266,0.428537756,1.426887798
1221095.734,-10.17867926,0.627256868,1.362843386
1221105.499,-10.02495065,0.74702178,1.351088988
1221115.265,-9.870552751,0.628125267,1.406263326
1221125.031,-9.758244904,0.861971731,1.098586526
1221134.796,-10.06587953,0.782087104,1.104355175
1221144.562,-9.987513356,0.944973289,1.248664449
1221154.327,-9.948378653,0.706319617,1.315980864
1221164.093,-10.10147829,0.747812643,1.390632148
1221173.859,-10.10111946,0.788530313,1.426515627
1221183.624,-10.02544657,0.466029944,1.301497213
1221193.39,-10.17832042,0.667974537,1.398726865
1221203.156,-10.25758166,0.58329821,1.164910485
1221212.921,-10.17903809,0.586539198,1.326959906
1221222.687,-10.06453692,0.664772317,1.238615834
1221232.452,-9.98608608,0.38782784,1.391391997
1221242.218,-10.17778419,0.54904701,1.452350492
1221251.984,-9.910586557,0.584980732,1.24903662
1221261.749,-10.02414831,0.388626457,1.431322835
1221271.515,-9.909018167,0.628117513,1.405875648
1221281.281,-9.909377001,0.587399843,1.369992169
1221291.046,-10.1027322,0.785304831,1.265241562
1221300.812,-9.987739139,0.784521722,1.22608608
1221310.577,-10.10183713,0.707094973,1.354748668
1221320.343,-10.10031712,0.430134989,1.506749475
1221330.109,-9.95052763,0.822021663,1.101083172
1221339.874,-9.985412761,0.509174478,1.458723919
1221349.64,-9.947572283,0.707932358,1.396617897
1221359.406,-9.985231327,0.709537345,1.476867251
1221369.171,-9.910763958,0.744625929,1.231296473
1221378.937,-10.02665209,0.823618897,1.180944849
1221388.702,-9.948737488,0.665601948,1.280097385
1221398.468,-9.948870539,0.785335845,1.266792274
1221408.234,-10.02665209,0.823618897,1.180944849
1221417.999,-9.98778349,0.824433021,1.221651043
1221427.765,-9.912642801,0.980868244,1.043412187
1221437.531,-10.06296853,0.707909097,1.395454863
1221447.296,-10.02575702,0.745409039,1.270451955
1221457.062,-10.02512805,0.906666977,1.33334884
1221466.827,-10.10304668,0.704675862,1.233793119
1221476.593,-10.21759221,0.666354043,1.317702155
1221486.359,-10.17881231,0.746990766,1.349538275
1221496.124,-10.10291363,0.584941965,1.24709823
1221505.89,-10.02526513,0.666392811,1.319640545
1221515.656,-10.21687454,0.747789382,1.389469114
1221525.421,-10.06265404,0.788538066,1.426903305
1221535.187,-9.948648787,0.585779349,1.288967458
1221544.952,-10.17988881,0.624837757,1.241887837
1221554.718,-9.985457111,0.549085778,1.454288882
1221564.484,-10.06422243,0.745401286,1.270064277
1221574.249,-10.10085336,0.549062517,1.453125848
1221584.015,-10.02405558,0.668811922,1.440596094
1221593.781,-10.21718902,0.667160413,1.358020671
1221603.546,-10.02437006,0.588182953,1.409147651
1221613.312,-9.794025106,0.627334403,1.366720166
1221623.077,-9.987920573,0.584158855,1.207942748
1221632.843,-10.06364185,0.586562459,1.32812294
1221642.609,-10.02634164,0.544239802,1.211990106
1221652.374,-10.06332736,0.667191428,1.359571383
1221662.14,-10.10241772,0.8659338,1.296690005
1221671.906,-10.14003241,0.827627488,1.381374396
1221681.671,-10.10098641,0.668796415,1.439820738
1221691.437,-9.986485233,0.747029533,1.351476666
1221701.202,-9.871403472,0.666423825,1.321191257
1221710.968,-9.911525978,0.70310189,1.155094477
1221720.734,-9.833921829,0.824464035,1.223201755
1221730.499,-9.948826188,0.745424546,1.271227311
1221740.265,-10.14034689,0.746998519,1.349925953
1221750.031,-10.06462562,0.744594915,1.229745761
1221759.796,-10.02477325,0.587376583,1.368829135
1221769.562,-9.949543858,0.663989207,1.199460352
1221779.327,-9.909691486,0.506770875,1.338543726
1221789.093,-10.06211781,0.669610539,1.480526932
1221798.859,-10.02723671,0.62244966,1.122483
1221808.624,-10.10094206,0.628885115,1.444255774
1221818.39,-10.02437006,0.588182953,1.409147651
1221828.156,-10.14097586,0.585740581,1.287029068
1221837.921,-10.06243229,0.58898157,1.449078489
1221847.687,-10.10215161,0.626466005,1.323300226
1221857.452,-10.21737046,0.466797547,1.339877339
1221867.218,-10.02445876,0.668005552,1.400277577
1221876.984,-10.17818737,0.54824064,1.412031976
1221886.749,-10.06287983,0.628086499,1.404324936
1221896.515,-9.986529584,0.786940833,1.347041629
1221906.281,-10.10349422,0.743780791,1.189039566
1221916.046,-9.948019818,0.747037287,1.351864344
1221925.812,-10.14048398,0.506724353,1.336217658
1221935.577,-10.10157103,0.467627178,1.381358889
1221945.343,-9.948556054,0.865964814,1.298240717
1221955.109,-9.988859994,0.702280012,1.114000605
1221964.874,-10.06435952,0.50512712,1.256355981
1221974.64,-9.909913238,0.706327371,1.316368542
1221984.406,-9.948826188,0.745424546,1.271227311
1221994.171,-9.986622316,0.506755367,1.33776837
1222003.937,-9.717989347,0.705559768,1.277988416
1222013.702,-10.40862103,0.588911788,1.445589387
1222023.468,-9.795145961,0.545092694,1.254634691
1222033.234,-9.717182976,0.707172509,1.358625449
1222042.999,-9.600802959,0.549163313,1.458165663
1222052.765,-10.10152264,0.787723942,1.386197111
1222062.531,-10.06198476,0.549876641,1.493832042
1222072.296,-10.21678584,0.667966784,1.398339187
1222082.062,-10.10170408,0.587361076,1.368053779
1222091.827,-9.832131686,0.668044319,1.402215968
1222101.593,-9.832579222,0.707149248,1.357462415
1222111.359,-9.760039078,0.658383383,0.919169128
1222121.124,-9.755604041,0.667253456,1.362672807
1222130.89,-9.987650438,0.704699123,1.234956154
1222140.656,-9.985948997,0.628102006,1.405100292
1222150.421,-10.06323866,0.587368829,1.368441457
1222160.187,-9.985723213,0.788553573,1.427678661
1222169.952,-10.17840912,0.747797136,1.389856792
1222179.718,-10.06417808,0.705489986,1.274499314
1222189.484,-10.29362797,0.588128678,1.406433905
1222199.249,-10.25588022,0.506701092,1.335054624
1222209.015,-10.29492622,0.665532166,1.276608282
1222218.781,-10.25677529,0.58491095,1.245547518
1222228.546,-10.0260715,0.66478007,1.239003512
1222238.312,-10.02647469,0.6639737,1.198684996
1222248.077,-10.0650288,0.743788545,1.189427244
1222257.843,-9.833385592,0.705536508,1.276825382
1222267.609,-9.873149264,0.782932242,1.146612082
1222277.374,-10.06153722,0.510771712,1.538585595
1222287.14,-9.948511704,0.826053515,1.302675754
1222296.906,-9.947842417,0.58739209,1.369604491
1222306.671,-10.13895994,0.589772433,1.488621649
1222316.437,-10.10183713,0.707094973,1.354748668
1222326.202,-10.06270243,0.468441302,1.422065083
1222335.968,-10.25596892,0.586523691,1.32618455
1222345.734,-9.911481628,0.66319059,1.159529514
1222355.499,-10.17961868,0.745378025,1.268901243
1222365.265,-10.10143394,0.707901344,1.395067185
1222375.031,-10.0248176,0.627287882,1.364394098
1222384.796,-10.06413373,0.665578687,1.278934351
1222394.562,-10.29411985,0.667144906,1.357245315
1222404.327,-10.18019927,0.904216852,1.210842579
1222414.093,-10.02270894,0.911505199,1.575259938
1222423.859,-9.98706582,0.90586836,1.293418002
1222433.624,-10.02535383,0.746215409,1.310770471
1222443.39,-9.873193614,0.822843541,1.142177045
1222453.156,-9.910897009,0.864359827,1.217991363
1222462.921,-10.02651904,0.703884999,1.194249959
1222472.687,-10.06346041,0.786925325,1.346266273
1222482.452,-10.0636862,0.626473758,1.323687904
1222492.218,-9.910449474,0.825254898,1.262744916
1222501.984,-9.910001938,0.786149969,1.307498469
1222511.749,-10.02611585,0.70469137,1.234568476
1222521.515,-9.949543858,0.663989207,1.199460352
1222531.281,-10.02857932,0.739764447,0.988222341
1222541.046,-10.06484737,0.944151412,1.207570577
1222550.812,-9.869835082,0.709560606,1.478030285
1222560.577,-10.02575702,0.745409039,1.270451955
1222570.343,-10.06341606,0.747014026,1.35070131
1222580.109,-10.0260715,0.66478007,1.239003512
1222589.874,-10.17872361,0.667168167,1.358408349
1222599.64,-9.947931117,0.667214688,1.360734417
1222609.406,-10.06247664,0.628892869,1.444643453
1222619.171,-10.13909702,0.349498267,1.474913354
1222628.937,-9.947842417,0.58739209,1.369604491
1222638.702,-10.02432571,0.548271654,1.413582688
1222648.468,-9.986799718,0.666400564,1.320028223
1222658.234,-10.02311616,0.550690765,1.534538237
1222667.999,-10.17832042,0.667974537,1.398726865
1222677.765,-9.946362727,0.710351469,1.517573446
1222687.531,-9.986755367,0.626489265,1.32446326
1222697.296,-9.947036046,0.58900483,1.450241523
1222707.062,-10.21495135,0.471635769,1.581788436
1222716.827,-9.985545812,0.628908376,1.445418809
1222726.593,-10.25431183,0.549837873,1.491893652
1222736.359,-10.10085336,0.549062517,1.453125848
1222746.124,-10.10063161,0.349506021,1.475301032
1222755.89,-9.947665015,0.427746893,1.387344638
1222765.656,-9.946140975,0.510794973,1.53974863
1222775.421,-10.21562467,0.35028913,1.514456514
1222785.187,-10.21575772,0.470023028,1.501151404
1222794.952,-10.13699239,0.27370752,1.685376009
1222804.718,-10.09991394,0.43094136,1.547067991
1222814.484,-10.25296923,0.432523086,1.626154311
1222824.249,-9.90848193,0.509189986,1.459499275
1222834.015,-10.06355315,0.50673986,1.336993014
1222843.781,-10.06211781,0.669610539,1.480526932
1222853.546,-9.832938057,0.666431579,1.321578935
1222863.312,-9.794605693,0.78617323,1.308661503
1222873.077,-9.909687454,0.866778938,1.338946911
1222882.843,-10.14070573,0.706280849,1.314042474
1222892.609,-9.794113807,0.707157002,1.357850093
1222902.374,-9.831684151,0.62893939,1.446969521
1222912.14,-10.17863491,0.587345568,1.367278423
1222921.906,-10.14030254,0.70708722,1.35436099
1222931.671,-10.21781396,0.865910539,1.295526971
1222941.437,-10.06296853,0.707909097,1.395454863
1222951.202,-10.21772526,0.786087941,1.304397044
1222960.968,-9.910719608,0.70471463,1.23573151
1222970.734,-9.987335954,0.785328092,1.266404596
1222980.499,-10.10336117,0.624046894,1.202344677
1222990.265,-9.870774503,0.827681763,1.384088142
1223000.031,-9.912602483,0.580948881,1.047444039
1223009.796,-10.10116381,0.828441612,1.422080591
1223019.562,-9.908836733,0.82848038,1.424018981
1223029.327,-10.06256534,0.708715468,1.435773379
1223039.093,-9.945286223,0.832504478,1.625223884
1223048.859,-10.06158157,0.550683011,1.534150559
1223058.624,-10.25319098,0.632079583,1.603979127
1223068.39,-9.867286952,0.234656866,1.732843308
1223078.156,-9.907494127,0.711165593,1.55827964
1223087.921,-10.05961,0.594626162,1.731308103
1223097.687,-9.908256147,0.669641553,1.482077644
1223107.452,-9.86885131,0.551528149,1.576407465
1223117.218,-9.833788777,0.704730137,1.236506866
1223126.984,-10.09919627,0.512376699,1.61883495
1223136.749,-10.17886069,0.426894001,1.344700053
1223146.515,-10.09834555,0.47407814,1.703907019
1223156.281,-10.25390865,0.550644243,1.532212168
1223166.046,-10.02186225,0.513198576,1.659928822
1223175.812,-9.984783792,0.670432416,1.521620804
1223185.577,-10.29232971,0.510725191,1.536259527
1223195.343,-9.947483582,0.628109759,1.40548797
1223205.109,-10.02338226,0.79015856,1.507928016
1223214.874,-9.908034395,0.470085057,1.504252828
1223224.64,-9.830922131,0.67046343,1.523171517
1223234.406,-9.832623572,0.747060548,1.353027378
1223244.171,-9.947527932,0.668021059,1.401052934
1223253.937,-9.832309088,0.827689516,1.384475821
1223263.702,-9.755781443,0.826898653,1.34493266
1223273.468,-9.833204159,0.905899374,1.294968714
1223283.234,-9.988364076,0.983271848,1.16359238
1223292.999,-9.986799718,0.666400564,1.320028223
1223302.765,-9.872387244,0.824456282,1.222814077
1223312.531,-9.720315725,0.980907012,1.045350577
1223322.296,-9.871266389,0.906697991,1.334899553
1223332.062,-9.947302149,0.828472626,1.423631303
1223341.827,-9.794561342,0.746261931,1.31309654
1223351.593,-9.870149566,0.628931637,1.446581843
1223361.359,-9.985993347,0.668013305,1.400665256
1223371.124,-10.10036147,0.470046289,1.502314438
1223380.89,-10.10143394,0.707901344,1.395067185
1223390.656,-9.985767564,0.828464872,1.423243625
1223400.421,-10.32944849,0.753410714,1.670535694
1223410.187,-10.29344654,0.788491545,1.424577237
1223419.952,-10.25605762,0.66634629,1.317314477
1223429.718,-10.10259915,0.665570933,1.278546673
1223439.484,-9.987158553,0.625682895,1.284144743
1223449.249,-9.947124747,0.668827429,1.44137145
1223459.015,-9.909554403,0.74704504,1.352252022
1223468.781,-10.06314996,0.507546231,1.37731153
1223478.546,-10.1025548,0.625659634,1.282981709
1223488.312,-9.986082048,0.747835904,1.391795182
1223498.077,-9.909957588,0.74623867,1.311933505
1223507.843,-9.945600707,0.751875509,1.593775441
1223517.609,-9.948423003,0.746230917,1.311545827
1223527.374,-10.25547301,0.867515527,1.375776325
1223537.14,-9.908344847,0.749464151,1.473207571
1223546.906,-10.02405558,0.668811922,1.440596094
1223556.671,-9.947572283,0.707932358,1.396617897
1223566.437,-9.794875827,0.665632962,1.281648097
1223576.202,-9.985231327,0.709537345,1.476867251
1223585.968,-10.02522078,0.626481512,1.324075582
1223595.734,-10.02333791,0.750247261,1.512363053
1223605.499,-10.17827607,0.628063238,1.403161902
1223615.265,-9.908703682,0.708746482,1.437324091
1223625.031,-9.753991301,0.670478937,1.523946873
1223634.796,-10.06373055,0.666385057,1.319252867
1223644.562,-9.79510161,0.505181395,1.259069728
1223654.327,-10.02396688,0.588989323,1.449466167
1223664.093,-9.757128081,0.584205376,1.210268816
1223673.859,-9.793754972,0.747874671,1.393733572
1223683.624,-9.715658936,0.790220589,1.51102944
1223693.39,-9.870726121,1.147778527,1.388926364
1223703.156,-9.793259054,1.028866507,1.443325347
1223712.921,-10.02503935,0.826844378,1.342218914
1223722.687,-9.83176882,1.068770053,1.438502632
1223732.452,-10.02378544,0.78935219,1.4676095
1223742.218,-9.985453079,0.909093841,1.454692067
1223751.984,-10.17782854,0.588958309,1.447915455
1223761.749,-10.29411985,0.667144906,1.357245315
1223771.515,-10.17765114,0.429313112,1.465655602
1223781.281,-10.061763,0.350320145,1.516007226
1223791.046,-10.10036147,0.470046289,1.502314438
1223800.812,-9.948423003,0.746230917,1.311545827
1223810.577,-9.794158157,0.747068301,1.353415056
1223820.343,-10.02356369,0.589795694,1.489784684
1223830.109,-9.755604041,0.667253456,1.362672807
1223839.874,-9.756095927,0.746269684,1.313484218
1223849.64,-9.948152869,0.866771185,1.338559233
1223859.406,-9.946407077,0.750262768,1.513138409
1223869.171,-10.02566832,0.665586441,1.279322029
1223878.937,-9.871177688,0.826875393,1.343769626
1223888.702,-10.02163647,0.673650144,1.682507191
1223898.468,-10.1017444,0.987280439,1.364021927
1223908.234,-10.06319028,0.907465594,1.373279679
1223917.999,-10.18011057,0.824394253,1.219712653
1223927.765,-9.833966179,0.864375334,1.218766719
1223937.531,-10.10188148,0.747006273,1.350313632
1223947.296,-9.948423003,0.746230917,1.311545827
1223957.062,-9.794561342,0.746261931,1.31309654
1223966.827,-9.831502718,0.829302257,1.465112853
1223976.593,-9.871133338,0.786964093,1.348204663
1223986.359,-9.832893706,0.626520279,1.326013972
1223996.124,-9.756007226,0.666447086,1.322354291
1224005.89,-10.06265404,0.788538066,1.426903305
1224015.656,-9.871314771,0.586601227,1.330061331
1224025.421,-9.945915192,0.67124654,1.562326999
1224035.187,-10.1016557,0.90745784,1.372892001
1224044.952,-10.06265404,0.788538066,1.426903305
1224054.718,-9.947572283,0.707932358,1.396617897
1224064.484,-10.02544253,0.826038008,1.301900398
1224074.249,-10.02441441,0.628094252,1.404712614
1224084.015,-10.06516186,0.863522443,1.176122134
1224093.781,-9.947213448,0.748650028,1.432501376
1224103.546,-10.10201856,0.506732107,1.336605336
1224113.312,-9.909106867,0.707940111,1.397005575
1224123.077,-9.757886069,0.9026894,1.134470005
1224132.843,-9.832579222,0.707149248,1.357462415
1224142.609,-9.871177688,0.826875393,1.343769626
1224152.374,-10.06426678,0.785312585,1.26562924
1224162.14,-9.909776155,0.946601537,1.330076838
1224171.906,-10.13967358,0.868345158,1.417257876
1224181.671,-10.06194041,0.509965342,1.498267079
1224191.437,-9.910046289,0.826061269,1.303063432
1224201.202,-9.986618284,0.866763431,1.338171555
1224210.968,-9.947483582,0.628109759,1.40548797
1224220.734,-10.02580137,0.785320338,1.266016918
1224230.499,-10.02454746,0.74782815,1.391407504
1224240.265,-10.02620455,0.784513968,1.225698402
1224250.031,-10.02364836,1.029626356,1.481317795
1224259.796,-9.946721562,0.669633799,1.481689966
1224269.562,-9.985364379,0.829271243,1.463562141
1224279.327,-9.985142627,0.629714746,1.485737325
1224289.093,-9.985275678,0.749448644,1.472432214
1224298.859,-10.06193637,0.869973405,1.498670264
1224308.624,-10.02436603,0.948191017,1.409550836
1224318.39,-10.06274274,0.868360665,1.418033232
1224328.156,-9.909687454,0.866778938,1.338946911
1224337.921,-9.870907554,0.947415661,1.370783032
1224347.687,-9.718880386,1.14377769,1.188884495
1224357.452,-9.911163112,1.103827623,1.191381142
1224367.218,-9.758466656,1.061528227,1.076411342
1224376.984,-9.91098571,0.944182426,1.209121289
1224386.749,-9.949495476,0.984085971,1.204298574
1224396.515,-9.948777806,1.065521311,1.276065533
1224406.281,-10.3707362,0.747758368,1.387918402
1224416.046,-10.25475937,0.588942802,1.447140099
1224425.812,-10.3706475,0.66793577,1.396788475
1224435.577,-10.14097586,0.585740581,1.287029068
1224445.343,-9.909780187,0.586593473,1.329673653
1224455.109,-9.832756623,0.866794445,1.339722267
1224464.874,-9.832309088,0.827689516,1.384475821
1224474.64,-9.90869965,1.068754546,1.437727276
1224484.406,-10.21696324,0.827611981,1.38059904
1224494.171,-10.02409993,0.708723221,1.436161057
1224503.937,-9.948644755,0.945787413,1.289370643
1224513.702,-9.948019818,0.747037287,1.351864344
1224523.468,-10.10049452,0.589780187,1.489009328
1224533.234,-9.868448125,0.55233452,1.616725981
1224542.999,-9.869254495,0.550721779,1.536088949
1224552.765,-9.870774503,0.827681763,1.384088142
1224562.531,-10.06175897,0.710328208,1.516410411
1224572.296,-10.10179278,0.667183674,1.359183705
1224582.062,-9.948556054,0.865964814,1.298240717
1224591.827,-9.947660983,0.787754956,1.387747823
1224601.593,-9.94819722,0.906682484,1.334124197
1224611.359,-9.757482884,0.90349577,1.174788522
1224621.124,-10.10282493,0.505119366,1.255968303
1224630.89,-9.986755367,0.626489265,1.32446326
1224640.656,-10.14025819,0.667175921,1.358796027
1224650.421,-10.21741078,0.86671691,1.335845487
1224660.187,-10.25663821,0.825185116,1.259255813
1224669.952,-10.21678584,0.667966784,1.398339187
1224679.718,-10.02566429,1.025594504,1.279725214
1224689.484,-9.911880781,1.022392284,1.119614183
1224699.249,-10.10255077,0.985667698,1.283384895
1224709.015,-9.911566297,1.103021253,1.151062626
1224718.781,-10.10205888,0.90665147,1.332573484
1224728.546,-10.02553124,0.905860606,1.293030324
1224738.312,-9.948781838,0.705513247,1.275662348
1224748.077,-9.948334303,0.666408318,1.320415901
1224757.843,-9.832982407,0.706342878,1.317143898
1224767.609,-9.947842417,0.58739209,1.369604491
1224777.374,-10.02522078,0.626481512,1.324075582
1224787.14,-9.950080094,0.782916735,1.145836726
1224796.906,-10.02477325,0.587376583,1.368829135
1224806.671,-9.794650043,0.826084529,1.304226466
1224816.437,-9.833026758,0.746254177,1.312708862
1224826.202,-10.10313538,0.784498461,1.224923046
1224835.968,-9.757482884,0.90349577,1.174788522
1224845.734,-9.910719608,0.70471463,1.23573151
1224855.499,-9.948511704,0.826053515,1.302675754
1224865.265,-9.719735138,0.822068185,1.103409241
1224875.031,-9.794561342,0.746261931,1.31309654
1224884.796,-9.872431594,0.864367581,1.218379041
1224894.562,-9.834010529,0.904286634,1.214331682
1224904.327,-9.910671226,1.024811395,1.240569732
1224914.093,-9.87211711,0.94499655,1.249827483
1224923.859,-9.94895924,0.865158444,1.257922201
1224933.624,-10.14097586,0.585740581,1.287029068
1224943.39,-10.02593442,0.905054236,1.252711808
1224953.156,-9.869879432,0.749471905,1.473595249
1224962.921,-10.2552956,0.707870329,1.393516472
1224972.687,-9.910449474,0.825254898,1.262744916
1224982.452,-10.02289037,0.711142332,1.557116606
1224992.218,-9.986170749,0.827658502,1.382925108
1225001.984,-10.2920112,0.951362223,1.568111155
1225011.749,-9.945556357,0.71196421,1.598210478
1225021.515,-10.02181387,0.833295341,1.664767044
1225031.281,-9.906687756,0.712778333,1.638916672
1225041.046,-9.945556357,0.71196421,1.598210478
1225050.812,-9.945556357,0.71196421,1.598210478
1225060.577,-10.0208301,0.675262884,1.763144224
1225070.343,-10.0608639,0.63211835,1.605917518
1225080.109,-9.868940011,0.631350748,1.567537392
1225089.874,-9.908256147,0.669641553,1.482077644
1225099.64,-9.831772852,0.708761989,1.438099447
1225109.406,-9.908836733,0.82848038,1.424018981
1225119.171,-9.87135509,0.98652059,1.326029479
1225128.937,-9.947660983,0.787754956,1.387747823
1225138.702,-10.25587619,0.866709156,1.335457809
1225148.468,-10.21772526,0.786087941,1.304397044
1225158.234,-10.10161135,0.867546541,1.377327037
1225167.999,-10.02593442,0.905054236,1.252711808
1225177.765,-10.02674079,0.903441496,1.172074775
1225187.531,-9.795053228,0.825278159,1.26390795
1225197.296,-9.872520295,0.944190179,1.209508967
1225207.062,-9.87292348,0.943383809,1.169190451
1225216.827,-9.832353438,0.867600816,1.380040784
1225226.593,-9.87292348,0.943383809,1.169190451
1225236.359,-10.06220651,0.749433137,1.471656858
1225246.124,-9.986396533,0.667206935,1.360346739
1225255.89,-9.90937297,0.947407907,1.370395354
1225265.656,-9.987154521,0.985690959,1.284547929
1225275.421,-9.945330573,0.872415777,1.620788847
1225285.187,-10.02432168,0.908279717,1.413985873
1225294.952,-9.869161763,0.830907244,1.545362208
1225304.718,-10.02476922,0.947384646,1.36923232
1225314.484,-9.947660983,0.787754956,1.387747823
1225324.249,-9.982812217,0.714375567,1.718778349
1225334.015,-9.869968133,0.829294504,1.464725175
1225343.781,-10.06148884,0.830868476,1.543423817
1225353.546,-10.13779473,0.632102843,1.605142162
1225363.312,-10.09941802,0.711933195,1.596659766
1225373.077,-10.02123328,0.674456514,1.722825708
1225382.843,-9.90695789,0.592238065,1.611903267
1225392.609,-9.986485233,0.747029533,1.351476666
1225402.374,-10.10031309,0.790143053,1.50715266
1225412.14,-9.79200918,0.631366255,1.568312748
1225421.906,-10.1386011,0.630490103,1.524505129
1225431.671,-10.05992448,0.513997193,1.699859661
1225441.437,-10.10129686,0.94817551,1.40877548
1225451.202,-9.870641452,0.707947865,1.397393253
1225460.968,-9.870955937,0.627318896,1.36594481
1225470.734,-10.06328301,0.627280128,1.36400642
1225480.499,-10.13882285,0.830046599,1.502329945
1225490.265,-9.946810263,0.749456398,1.472819893
1225500.031,-9.793754972,0.747874671,1.393733572
1225509.796,-10.10201453,0.86674017,1.337008521
1225519.562,-9.87211711,0.94499655,1.249827483
1225529.327,-10.06431113,0.825223884,1.261194203
1225539.093,-9.985275678,0.749448644,1.472432214
1225548.859,-9.945826491,0.591423941,1.571197072
1225558.624,-9.909465702,0.667222442,1.361122095
1225568.39,-10.21580207,0.509934327,1.496716367
1225578.156,-10.02450311,0.707916851,1.395842541
1225587.921,-10.02244284,0.672037403,1.601870159
1225597.687,-9.871625224,0.865980321,1.299016073
1225607.452,-10.06350476,0.826836625,1.341831236
1225617.218,-9.871088988,0.747052794,1.3526397
1225626.984,-9.987380304,0.825239391,1.26196956
1225636.749,-10.02427733,0.868368418,1.41842091
1225646.515,-9.793888023,0.867608569,1.380428462
1225656.281,-9.986795686,1.026408628,1.320431408
1225666.046,-9.948870539,0.785335845,1.266792274
1225675.812,-10.0252611,1.026400875,1.32004373
1225685.577,-10.10219596,0.666377304,1.318865189
1225695.343,-10.10322409,0.864321059,1.216052972
1225705.109,-10.02436603,0.948191017,1.409550836
1225714.874,-10.14088313,0.865926047,1.296302327
1225724.64,-10.06538361,1.063078939,1.15394695
1225734.406,-10.14097183,0.945748645,1.287432253
1225744.171,-10.17800594,0.748603506,1.430175308
1225753.937,-10.10326844,0.904232359,1.211617936
1225763.702,-9.947527932,0.668021059,1.401052934
1225773.468,-9.910449474,0.825254898,1.262744916
1225783.234,-10.02513208,0.546658913,1.332945655
1225792.999,-10.06162592,0.59059431,1.529715522
1225802.765,-10.02571267,0.70549774,1.274886992
1225812.531,-10.10000264,0.510763958,1.538197917
1225822.296,-10.02432571,0.548271654,1.413582688
1225832.062,-9.832087336,0.62813302,1.406651004
1225841.827,-9.907986013,0.790181821,1.50909105
1225851.593,-10.13958487,0.788522559,1.426127949
1225861.359,-10.06193637,0.869973405,1.498670264
1225871.124,-10.02306777,0.870787529,1.539376459
1225880.89,-10.09937367,0.672021896,1.601094803
1225890.656,-10.06207346,0.629699239,1.484961969
1225900.421,-10.13770603,0.552280245,1.614012235
1225910.187,-9.948870539,0.785335845,1.266792274
1225919.952,-9.831728501,0.66885069,1.442534484
1225929.718,-9.830966481,0.71037473,1.51873648
1225939.484,-9.907941662,0.750270522,1.513526087
1225949.249,-9.907764261,0.590625325,1.531266234
1225959.015,-9.678358726,0.747897932,1.394896606
1225968.781,-10.0608639,0.63211835,1.605917518
1225978.546,-9.86885131,0.551528149,1.576407465
1225988.312,-9.983933071,0.632133857,1.606692874
1225998.077,-10.25453358,0.749394369,1.469718468
1226007.843,-9.985811914,0.868376172,1.418808588
1226017.609,-10.02459181,0.787739449,1.386972467
1226027.374,-9.984646709,0.910706582,1.5353291
1226037.14,-9.947794034,0.907488854,1.374442713
1226046.906,-10.10120816,0.868352911,1.417645554
1226056.671,-9.793259054,1.028866507,1.443325347
1226066.437,-9.948644755,0.945787413,1.289370643
1226076.202,-10.10071627,0.789336683,1.466834144
1226085.968,-9.91022369,0.985706466,1.285323285
1226095.734,-10.02356369,0.589795694,1.489784684
1226105.499,-9.946677212,0.6297225,1.486125003
1226115.265,-9.871536523,0.786157723,1.307886147
1226125.031,-10.21794701,0.985644437,1.28222186
1226134.796,-10.06327898,0.987288192,1.364409605
1226144.562,-10.13944779,1.028796725,1.439836245
1226154.327,-10.10205888,0.90665147,1.332573484
1226164.093,-9.986573934,0.826852132,1.342606592
1226173.859,-10.13904864,0.669595032,1.479751576
1226183.624,-10.13945182,0.668788661,1.43943306
1226193.39,-10.21848728,0.744563901,1.228195049
1226203.156,-10.10224031,0.706288603,1.314430152
1226212.921,-10.024995,0.786933079,1.346653951
1226222.687,-10.13904864,0.669595032,1.479751576
1226232.452,-10.06296853,0.707909097,1.395454863
1226242.218,-9.909195568,0.78776271,1.388135501
1226251.984,-10.02360804,0.629706993,1.485349647
1226261.749,-9.948289952,0.626497019,1.324850938
1226271.515,-9.947838385,0.947400154,1.370007676
1226281.281,-10.02437006,0.588182953,1.409147651
1226291.046,-10.02526513,0.666392811,1.319640545
1226300.812,-10.10111946,0.788530313,1.426515627
1226310.577,-10.13998806,0.787716189,1.385809433
1226320.343,-10.02526513,0.666392811,1.319640545
1226330.109,-10.10156699,0.827635241,1.381762074
1226339.874,-9.947660983,0.787754956,1.387747823
1226349.64,-10.02239849,0.632126104,1.606305196
1226359.406,-9.870951905,0.98732696,1.366347995
1226369.171,-9.985320028,0.789359944,1.467997178
1226378.937,-9.948600405,0.905876114,1.29380568
1226388.702,-10.06332736,0.667191428,1.359571383
1226398.468,-9.909151218,0.747851411,1.392570538
1226408.234,-10.0249063,0.70711048,1.355524024
1226417.999,-10.02365239,0.669618292,1.48091461
1226427.765,-10.10103076,0.708707714,1.435385701
1226437.531,-9.946092593,0.830891737,1.544586852
1226447.296,-9.944705636,0.673665651,1.683282548
1226457.062,-9.869968133,0.829294504,1.464725175
1226466.827,-10.02463616,0.827650749,1.38253743
1226476.593,-9.947169097,0.708738728,1.436936413
1226486.359,-10.02382979,0.829263489,1.463174463
1226496.124,-10.13962922,0.828433858,1.421692912
1226505.89,-10.02539818,0.786126709,1.306335435
1226515.656,-10.02450311,0.707916851,1.395842541
1226525.421,-10.06167027,0.63050561,1.525280485
1226535.187,-10.02495065,0.74702178,1.351088988
1226544.952,-9.946362727,0.710351469,1.517573446
1226554.718,-9.985320028,0.789359944,1.467997178
1226564.484,-10.10058322,0.669602785,1.480139254
1226574.249,-10.10044614,0.909876951,1.493847549
1226584.015,-10.06448854,0.984869081,1.243454056
1226593.781,-10.25278779,0.632885953,1.644297644
1226603.546,-9.946407077,0.750262768,1.513138409
1226613.312,-9.947749684,0.867577555,1.37887775
1226623.077,-9.986170749,0.827658502,1.382925108
1226632.843,-9.870730153,0.787770464,1.388523179
1226642.609,-10.10035744,0.830054352,1.502717623
1226652.374,-10.02468455,0.507553984,1.377699208
1226662.14,-10.17845347,0.787708435,1.385421755
1226671.906,-9.948019818,0.747037287,1.351864344
1226681.671,-9.946048243,0.790980438,1.549021888
1226691.437,-10.06507315,0.783699844,1.184992208
1226701.202,-10.10116381,0.828441612,1.422080591
1226710.968,-10.17581261,0.592990161,1.649508037
1226720.734,-9.94493142,0.513214084,1.660704178
1226730.499,-10.10036147,0.470046289,1.502314438
1226740.265,-9.946229676,0.590617571,1.530878556
1226750.031,-10.10072031,0.429328619,1.466430958
1226759.796,-10.02513208,0.546658913,1.332945655
1226769.562,-10.02360804,0.629706993,1.485349647
1226779.327,-10.06260969,0.748626767,1.431338342
1226789.093,-9.83329286,0.985721973,1.286098641
1226798.859,-9.987380304,0.825239391,1.26196956
1226808.624,-9.833474293,0.785359106,1.267955308
1226818.39,-9.678806262,0.787002861,1.350143053
1226828.156,-9.755378257,0.827705024,1.385251177
1226837.921,-9.715658936,0.790220589,1.51102944
1226847.687,-9.871580874,0.826069022,1.30345111
1226857.452,-10.14052833,0.546635652,1.331782621
1226867.218,-10.25753328,0.903394974,1.169748707
1226876.984,-10.17702217,0.59057105,1.528552488
1226886.749,-10.10130089,0.588167446,1.408372295
1226896.515,-10.25569879,0.707063959,1.353197956
1226906.281,-10.25484807,0.668765401,1.438270026
1226916.046,-10.13833097,0.751030371,1.551518535
1226925.812,-10.14016949,0.587353322,1.367666101
1226935.577,-10.17840912,0.747797136,1.389856792
1226945.343,-9.985948997,0.628102006,1.405100292
1226955.109,-10.02445876,0.668005552,1.400277577
1226964.874,-9.909062517,0.668028812,1.401440612
1226974.64,-10.06543199,0.742982175,1.149108728
1226984.406,-10.13815357,0.591385174,1.569258682
1226994.171,-9.985053926,0.549892148,1.494607398
1227003.937,-9.986622316,0.506755367,1.33776837
1227013.702,-10.02387818,0.509166725,1.458336241
1227023.468,-9.909284269,0.867585309,1.379265428
1227033.234,-10.17854218,0.867531034,1.376551681
1227042.999,-10.06350476,0.826836625,1.341831236
1227052.765,-9.987646407,1.064707187,1.235359339
1227062.531,-9.795186279,0.945012057,1.250602839
1227072.296,-10.10129686,0.94817551,1.40877548
1227082.062,-9.948600405,0.905876114,1.29380568
1227091.827,-9.870282617,0.748665535,1.433276732
1227101.593,-9.872342893,0.784544982,1.227249114
1227111.359,-9.757394183,0.823673172,1.183658595
1227121.124,-9.794424259,0.986536097,1.326804835
1227130.89,-9.909328619,0.907496608,1.374830391
1227140.656,-10.17778419,0.54904701,1.452350492
1227150.421,-10.21629395,0.588950556,1.447527777
1227160.187,-9.793444519,0.468495577,1.42477883
1227169.952,-10.05938824,0.395069666,1.753483287
1227179.718,-9.869794763,0.309641243,1.482062137
1227189.484,-9.909514084,0.347125677,1.356283873
1227199.249,-9.98689245,0.386215099,1.310754964
1227209.015,-9.909332651,0.547488544,1.374427206
1227218.781,-10.06198476,0.549876641,1.493832042
1227228.546,-10.02351934,0.549884394,1.49421972
1227238.312,-10.10130089,0.588167446,1.408372295
1227248.077,-10.06189606,0.470054042,1.502702116
1227257.843,-10.02504338,0.466836315,1.341815729
1227267.609,-10.10112349,0.428522249,1.426112442
1227277.374,-10.10022842,0.350312391,1.515619548
1227287.14,-10.21539888,0.510740698,1.537034883
1227296.906,-10.1761271,0.512361192,1.618059594
1227306.671,-10.29259985,0.390184922,1.509246121
1227316.437,-10.10000264,0.510763958,1.538197917
1227326.202,-10.17859056,0.547434269,1.371713459
1227335.968,-10.10049452,0.589780187,1.489009328
1227345.734,-10.13887124,0.509949834,1.497491723
1227355.499,-10.21651974,0.428498988,1.424949408
1227365.265,-9.869972165,0.46928644,1.46432199
1227375.031,-10.09995829,0.470852659,1.542632954
1227384.796,-10.10121219,0.508344847,1.417242369
1227394.562,-9.907856993,0.31043986,1.521992975
1227404.327,-10.29349492,0.46839478,1.419739015
1227414.093,-9.947394881,0.548287161,1.414358044
1227423.859,-10.06444822,0.584949718,1.247485908
1227433.624,-10.10000264,0.510763958,1.538197917
1227443.39,-10.17872361,0.667168167,1.358408349
1227453.156,-9.986219131,0.507561738,1.378086886
1227462.921,-9.948737488,0.665601948,1.280097385
1227472.687,-10.02526513,0.666392811,1.319640545
1227482.452,-10.06314996,0.507546231,1.37731153
1227492.218,-9.794964527,0.74545556,1.272778023
1227501.984,-9.753588115,0.671285308,1.564265389
1227511.749,-9.794291208,0.866802199,1.340109945
1227521.515,-9.948556054,0.865964814,1.298240717
1227531.281,-10.02454746,0.74782815,1.391407504
1227541.046,-9.947612601,1.107851721,1.392586045
1227550.812,-9.98625945,0.907481101,1.374055035
1227560.577,-9.908566599,0.949020648,1.451032387
1227570.343,-9.794827445,0.985729726,1.286486319
1227580.109,-9.794246858,0.8268909,1.344544982
1227589.874,-9.909106867,0.707940111,1.397005575
1227599.64,-9.87292348,0.943383809,1.169190451
1227609.406,-9.679386848,0.945841688,1.29208439
1227619.171,-10.10017601,1.030417219,1.520860955
1227628.937,-9.985364379,0.829271243,1.463562141
1227638.702,-10.40539958,0.235354687,1.767734332
1227648.468,-10.2536869,0.351087747,1.554387352
1227658.234,-10.33061773,0.35107224,1.553611996
1227667.999,-10.13820195,0.271288409,1.56442046
1227677.765,-10.13721415,0.473264016,1.663200825
1227687.531,-9.98375567,0.47248866,1.624433021
1227697.296,-9.944661286,0.633754352,1.687717584
1227707.062,-9.983574236,0.672851527,1.642576353
1227716.827,-9.947931117,0.667214688,1.360734417
1227726.593,-9.906461973,0.873229901,1.661495042
1227736.359,-9.908389198,0.789375451,1.468772534
1227746.124,-9.944705636,0.673665651,1.683282548
1227755.89,-9.790843975,0.673696665,1.68483326
1227765.656,-9.792097881,0.711188853,1.559442674
1227775.421,-10.13649648,0.554699356,1.734967784
1227785.187,-10.06194041,0.509965342,1.498267079
1227794.952,-10.17675607,0.351103254,1.555162708
1227804.718,-9.98460639,0.510787219,1.539360952
1227814.484,-10.02316051,0.590602064,1.5301032
1227824.249,-10.13819792,0.631296473,1.564823645
1227834.015,-10.02396688,0.588989323,1.449466167
1227843.781,-10.06171462,0.670416909,1.520845448
1227853.546,-9.948019818,0.747037287,1.351864344
1227863.312,-10.02436603,0.948191017,1.409550836
1227873.077,-10.0249063,0.70711048,1.355524024
1227882.843,-10.10250642,0.945756399,1.287819931
1227892.609,-10.024995,0.786933079,1.346653951
1227902.374,-9.987291604,0.745416793,1.270839633
1227912.14,-9.949676909,0.783723105,1.186155242
1227921.906,-9.949632559,0.743811806,1.190590279
1227931.671,-9.869161763,0.830907244,1.545362208
1227941.437,-9.795367713,0.74464919,1.232459507
1227951.202,-9.792589767,0.790205082,1.510254084
1227960.968,-9.793081653,0.86922131,1.461065494
1227970.734,-9.907090942,0.711971963,1.598598156
1227980.499,-10.21262094,0.556296589,1.81482946
1227990.265,-10.06068247,0.832481217,1.62406085
1228000.061,-10.05992448,0.513997193,1.699859661
1228009.796,-9.945197522,0.752681879,1.634093958
1228019.562,-9.791021377,0.833341862,1.667093113
1228029.327,-9.981022074,0.557955851,1.897792561
1228039.093,-9.981602661,0.716794678,1.839733898
1228048.859,-9.981917145,0.636165709,1.808285455
1228058.624,-10.17572391,0.513167562,1.65837811
1228068.39,-9.945241872,0.792593178,1.629658921
1228078.156,-10.10093803,0.988893179,1.44465896
1228087.921,-10.02351531,0.909892458,1.494622906
1228097.687,-9.908389198,0.789375451,1.468772534
1228107.452,-10.21736643,0.82680561,1.340280524
1228117.218,-10.17818334,0.908248703,1.412435161
1228126.984,-10.17805029,0.788514805,1.425740271
1228136.749,-10.10067192,0.749425384,1.47126918
1228146.515,-9.834413714,0.903480263,1.174013166
1228156.281,-9.946854613,0.789367697,1.468384856
1228166.046,-9.985856264,0.908287471,1.414373551
1228175.812,-10.02347096,0.869981159,1.499057942
1228185.577,-9.909239918,0.827674009,1.383700464
1228195.343,-9.909598753,0.78695634,1.347816985
1228205.109,-9.984916843,0.790166314,1.508315694
1228214.874,-9.870685802,0.747859164,1.392958216
1228224.64,-9.984469308,0.751061385,1.553069247
1228234.406,-10.02280167,0.631319734,1.565986679
1228244.171,-10.02342661,0.83006986,1.503492979
1228253.937,-10.02365239,0.669618292,1.48091461
1228263.702,-10.02195095,0.593021175,1.651058749
1228273.468,-9.907852961,0.670447923,1.52239616
1228283.234,-10.06207346,0.629699239,1.484961969
1228292.999,-10.1772923,0.470030782,1.501539082
1228302.765,-9.948511704,0.826053515,1.302675754
1228312.531,-9.908389198,0.789375451,1.468772534
1228322.296,-9.871266389,0.906697991,1.334899553
1228332.062,-10.17675203,0.711111318,1.555565894
1228341.827,-10.02459181,0.787739449,1.386972467
1228351.593,-10.06323463,0.947376893,1.368844642
1228361.359,-9.987739139,0.784521722,1.22608608
1228371.124,-10.10331279,0.944143658,1.207182899
1228380.89,-10.14119762,0.785297078,1.264853884
1228390.656,-10.02485792,1.027207245,1.360362246
1228400.421,-10.10130089,0.588167446,1.408372295
1228410.187,-10.02405558,0.668811922,1.440596094
1228419.952,-9.947080397,0.62891613,1.445806487
1228429.718,-10.02275732,0.591408434,1.570421716
1228439.484,-10.06194041,0.509965342,1.498267079
1228449.249,-10.32935979,0.673588115,1.679405767
1228459.015,-10.02445876,0.668005552,1.400277577
1228468.781,-9.985053926,0.549892148,1.494607398
1228478.546,-9.946140975,0.510794973,1.53974863
1228488.312,-10.06171462,0.670416909,1.520845448
1228498.077,-9.792279314,0.510825987,1.541299342
1228507.843,-9.792230932,0.830922751,1.546137564
1228517.609,-9.829535174,0.513237344,1.661867213
1228527.374,-9.947483582,0.628109759,1.40548797
1228537.14,-10.21490296,0.791732533,1.586626658
1228546.906,-10.21512875,0.631280966,1.564048289
1228556.671,-10.25310228,0.552256984,1.612849201
1228566.437,-10.06180332,0.750239507,1.511975375
1228576.202,-10.05943259,0.434980965,1.74904825
1228585.968,-10.14106456,0.66556318,1.278158995
1228595.734,-9.947572283,0.707932358,1.396617897
1228605.499,-10.14102021,0.625651881,1.282594031
1228615.265,-9.909643104,0.826867639,1.343381948
1228625.031,-9.948289952,0.626497019,1.324850938
1228634.796,-9.947169097,0.708738728,1.436936413
1228644.562,-10.02571267,0.70549774,1.274886992
1228654.327,-9.87292348,0.943383809,1.169190451
1228664.093,-9.910046289,0.826061269,1.303063432
1228673.859,-9.985545812,0.628908376,1.445418809
1228683.624,-9.985948997,0.628102006,1.405100292
1228693.39,-9.985767564,0.828464872,1.423243625
1228703.156,-9.908256147,0.669641553,1.482077644
1228712.921,-9.947842417,0.58739209,1.369604491
1228722.687,-10.06220651,0.749433137,1.471656858
1228732.452,-10.21481426,0.711909935,1.595496732
1228742.218,-9.947749684,0.867577555,1.37887775
1228751.984,-10.10143394,0.707901344,1.395067185
1228761.749,-10.02302746,0.470868166,1.54340831
1228771.515,-10.17827607,0.628063238,1.403161902
1228781.281,-10.10053887,0.629691486,1.484574291
1228791.046,-9.946677212,0.6297225,1.486125003
1228800.812,-9.947036046,0.58900483,1.450241523
1228810.577,-10.10022439,0.710320455,1.516022733
1228820.343,-10.17921549,0.746184395,1.309219759
1228830.109,-10.10205888,0.90665147,1.332573484
1228839.874,-10.17881231,0.746990766,1.349538275
1228849.64,-9.909731804,0.906690237,1.334511875
1228859.406,-9.871310739,0.94660929,1.330464516
1228869.171,-9.948556054,0.865964814,1.298240717
1228878.937,-9.987424655,0.86515069,1.257534523
1228888.702,-10.14039124,0.786909818,1.345490917
1228898.468,-10.21727772,0.746983012,1.349150597
1228908.234,-9.984916843,0.790166314,1.508315694
1228917.999,-9.870685802,0.747859164,1.392958216
1228927.765,-9.949406775,0.904263373,1.213168648
1228937.531,-9.946898963,0.829278996,1.463949819
1228947.296,-9.987424655,0.86515069,1.257534523
1228957.062,-9.909151218,0.747851411,1.392570538
1228966.827,-9.832712273,0.826883146,1.344157304
1228976.593,-9.755555659,0.987350221,1.367511029
1228986.359,-9.832756623,0.866794445,1.339722267
1228996.124,-9.947794034,0.907488854,1.374442713
1229005.89,-9.91022369,0.985706466,1.285323285
1229015.656,-10.06198072,0.909884705,1.494235228
1229025.421,-10.02472486,0.907473347,1.373667357
1229035.187,-9.98702147,0.865957061,1.297853039
1229044.952,-9.947616633,0.747843657,1.39218286
1229054.718,-9.986529584,0.786940833,1.347041629
1229064.484,-10.10138959,0.667990044,1.399502221
1229074.249,-10.13994774,0.387796826,1.389841285
1229084.015,-10.10206291,0.546643406,1.332170299
1229093.781,-10.21665279,0.548232886,1.411644298
1229103.546,-10.09897048,0.672828266,1.641413319
1229113.312,-10.06144852,0.430949113,1.547455669
1229123.077,-10.17814302,0.50832934,1.416467012
1229132.843,-10.21562063,0.710297194,1.514859699
1229142.609,-10.25184837,0.514764796,1.738239787
1229152.374,-10.21418933,0.513159809,1.657990432
1229162.14,-9.983038,0.553924,1.69619998
1229171.906,-10.06202911,0.58978794,1.489397006
1229181.671,-9.946721562,0.669633799,1.481689966
1229191.437,-9.910001938,0.786149969,1.307498469
1229201.202,-10.13967761,0.508337094,1.416854691
1229210.968,-10.02396688,0.588989323,1.449466167
1229220.734,-10.06122274,0.591400681,1.570034038
1229230.499,-10.10018004,0.670409155,1.52045777
1229240.265,-10.02468051,0.867562048,1.378102394
1229250.031,-10.10022439,0.710320455,1.516022733
1229259.796,-10.02342661,0.83006986,1.503492979
1229269.562,-10.02392253,0.549078024,1.453901204
1229279.327,-9.987424655,0.86515069,1.257534523
1229289.093,-9.910538175,0.905077497,1.253874842
1229298.859,-9.832623572,0.747060548,1.353027378
1229308.624,-9.985944965,0.98811007,1.405503477
1229318.39,-9.948733456,1.025610011,1.28050057
1229328.156,-10.02495065,0.74702178,1.351088988
1229337.921,-9.986618284,0.866763431,1.338171555
1229347.687,-9.909151218,0.747851411,1.392570538
1229357.452,-10.02750281,0.861917456,1.09587278
1229367.218,-9.911030061,0.984093725,1.204686252
1229376.984,-9.98702147,0.865957061,1.297853039
1229386.749,-10.02463616,0.827650749,1.38253743
1229396.515,-9.717493429,0.986551604,1.327580191
1229406.281,-9.910090639,0.865972568,1.298628395
1229416.046,-9.910090639,0.865972568,1.298628395
1229425.812,-10.02459181,0.787739449,1.386972467
1229435.577,-10.02432168,0.908279717,1.413985873
1229445.343,-9.909731804,0.906690237,1.334511875
1229455.109,-10.06368217,0.986481822,1.324091089
1229464.874,-9.987424655,0.86515069,1.257534523
1229474.64,-9.94819722,0.906682484,1.334124197
1229484.406,-10.13985501,0.667982291,1.399114543
1229494.171,-10.10188148,0.747006273,1.350313632
1229503.937,-9.949229374,0.744618176,1.230908795
