Timestamp,Accelerometer X,Accelerometer Y,Accelerometer Z
mSecs,m/(sec^2),m/(sec^2),m/(sec^2)
620847.6868,-9.976518496,2.686963008,2.348150388
620857.4524,-9.478887209,2.682225582,2.111279105
620867.218,-9.399940453,2.686272941,2.313647042
620876.9836,-9.360668667,2.687893435,2.394671753
620886.7493,-9.399444535,2.967264776,2.363238817
620896.5149,-9.24585704,2.486747459,2.337372939
620906.2805,-9.631317563,2.485057183,2.252859126
620916.0461,-9.476020562,2.647958875,2.397943756
620925.8118,-9.361386337,2.606458096,2.322904794
620935.5774,-9.591239407,2.488290417,2.414520869
620945.343,-9.515562482,2.525798113,2.289905639
620955.1086,-9.437151962,2.648772999,2.43864995
620964.8743,-9.400879874,2.804394098,2.219704899
620974.6399,-9.361341986,2.566546797,2.327339831
620984.4055,-9.476290697,2.527418607,2.37093035
620994.1711,-9.475931862,2.568136277,2.406813829
621003.9368,-9.475081141,2.529837718,2.491885899
621013.7024,-9.322965272,2.646377149,2.318857435
621023.468,-9.362192707,2.604845355,2.242267761
621033.2336,-9.284814341,2.565755933,2.287796671
621042.9993,-9.398376094,2.369401658,2.470082886
621052.7649,-9.169865631,2.604884123,2.244206152
621062.5305,-9.438676002,2.565724919,2.286245958
621072.2961,-9.477588953,2.604822095,2.241104727
621082.0618,-9.055723291,2.642399572,2.1199786
621091.8274,-9.323594241,2.485119211,2.25596055
621101.593,-9.324622363,2.683062967,2.153148333
621111.3586,-9.324533662,2.603240368,2.162018407
621121.1243,-9.361696789,2.885837191,2.291859536
621130.8899,-9.323638591,2.52503051,2.251525513
621140.6555,-9.323727292,2.604853109,2.24265544
621150.4211,-9.362551542,2.564127686,2.206384282
621160.1868,-9.440155692,2.44276554,2.138277004
621169.9524,-9.323727292,2.604853109,2.24265544
621179.718,-9.401553193,2.68304746,2.152372977
621189.4836,-9.322606437,2.687094818,2.354740915
621199.2493,-9.437913982,2.607248959,2.362447954
621209.0149,-9.247288347,2.683884844,2.194242206
621218.7805,-9.515876966,2.445169144,2.258457196
621228.5461,-9.441542648,2.599991626,1.999581308
621238.3118,-9.631317563,2.485057183,2.252859126
621248.0774,-9.285261877,2.604860862,2.243043118
621257.843,-9.246885162,2.684691214,2.234560722
621267.6086,-9.438361518,2.646353888,2.317694401
621277.3743,-9.401553193,2.68304746,2.152372977
621287.1399,-9.400972607,2.524208633,2.210431641
621296.9055,-9.401597544,2.722958759,2.14793794
621306.6711,-9.399311484,2.847530879,2.376543928
621316.4368,-9.324981198,2.642345297,2.117264854
621326.2024,-9.555011669,2.683822816,2.191140781
621335.968,-9.285753762,2.683877091,2.193854528
621345.7336,-9.516949439,2.683024199,2.151209943
621355.4993,-9.361341986,2.566546797,2.327339831
621365.2649,-9.401956378,2.682241089,2.112054461
621375.0305,-9.361297636,2.526635497,2.331774868
621384.7961,-9.28472564,2.485933335,2.296666744
621394.5618,-9.284366805,2.526651004,2.332550224
621404.3274,-9.51703814,2.762846797,2.14233987
621414.093,-9.208867282,2.723803897,2.190194847
621423.8586,-9.439256589,2.724563746,2.228187295
621433.6243,-9.284632908,2.7661188,2.305940003
621443.3899,-9.478350973,2.563298055,2.164902732
621453.1555,-9.670363564,2.643888256,2.194412784
621462.9211,-9.401375792,2.523402262,2.170113124
621472.6868,-9.553177177,2.487491801,2.37459003
621482.4524,-9.669827328,2.524960728,2.248036411
621492.218,-9.324848147,2.522611399,2.130569964
621501.9836,-9.477992138,2.604015724,2.200786211
621511.7493,-9.401375792,2.523402262,2.170113124
621521.5149,-9.326102052,2.560103588,2.005179379
621531.2805,-9.362055624,2.845119521,2.255976057
621541.0461,-9.169998682,2.724618021,2.230901041
621550.8118,-9.286156948,2.68307072,2.153536011
621560.5774,-9.478217922,2.443564157,2.178207842
621570.343,-9.209226117,2.683086227,2.154311367
621580.1086,-9.284632908,2.7661188,2.305940003
621589.8743,-9.593654486,2.843460259,2.173012956
621599.6399,-9.477722004,2.724555992,2.227799617
621609.4055,-9.475931862,2.568136277,2.406813829
621619.1711,-9.286201298,2.722982019,2.149100975
621628.9368,-9.322114551,2.60807859,2.403929505
621638.7024,-9.362817644,2.803595481,2.179774061
621648.468,-9.36407155,2.84108767,2.054383476
621658.2336,-9.555773689,2.642298776,2.114938786
621667.9993,-9.324037744,2.884232204,2.211610182
621677.7649,-9.288890543,2.597603529,1.880176471
621687.5305,-9.362325758,2.724579253,2.228962651
621697.2961,-9.478709807,2.522580385,2.129019252
621707.0618,-9.284411156,2.566562304,2.328115187
621716.8274,-9.363043428,2.643143914,2.157195692
621726.593,-9.286874617,2.601635381,2.081769052
621736.3586,-9.362281408,2.684667954,2.233397688
621746.1243,-9.554608484,2.684629186,2.231459298
621755.8899,-9.284947392,2.685489831,2.27449156
621765.6555,-9.285036093,2.76531243,2.265621487
621775.4211,-9.172954029,2.838707326,1.935366317
621785.1868,-9.439704124,2.763668675,2.183433742
621794.9524,-9.132383987,2.762924333,2.14621665
621804.718,-9.210165539,2.801207384,2.060369225
621814.4836,-9.208331046,2.604876369,2.243818474
621824.2493,-9.284588557,2.726207501,2.31037504
621834.0149,-9.361833872,2.645563025,2.278151241
621843.7805,-9.478931559,2.722136881,2.106844068
621853.5461,-9.246615028,2.805231483,2.261574128
621863.3118,-9.362370108,2.764490552,2.224527614
621873.0774,-9.401194359,2.723765129,2.188256457
621882.843,-9.440466144,2.722144635,2.107231746
621892.6086,-9.40208943,2.801974987,2.098749351
621902.3743,-9.363894148,2.681442472,2.072123623
621912.1399,-9.325069898,2.722167896,2.10839478
621921.9055,-9.285798113,2.72378839,2.189419491
621931.6711,-9.441046731,2.880983462,2.049173083
621941.4368,-9.363668365,2.84189404,2.094701992
621951.2024,-9.47830259,2.883394819,2.169740954
621960.968,-9.363442581,3.002345607,2.117280361
621970.7336,-9.44091368,2.761249564,2.062478193
621980.4993,-9.206988439,2.487561583,2.378079133
621990.2649,-9.248453552,2.641554434,2.077721694
622000.061,-9.1705833,2.523448784,2.172439193
622009.7961,-9.324533662,2.603240368,2.162018407
622019.5618,-9.402182162,2.521789522,2.089476092
622029.3274,-9.324622363,2.683062967,2.153148333
622039.093,-9.248497903,2.681465733,2.073286657
622048.8586,-9.475169842,2.609660317,2.483015825
622058.6243,-9.362773294,2.763684182,2.184209098
622068.3899,-9.440647577,2.521781768,2.089088414
622078.1555,-9.324219178,2.683869337,2.19346685
622087.9211,-9.440869329,2.721338265,2.06691323
622097.6868,-9.440510494,2.762055934,2.102796709
622107.4524,-9.438720352,2.605636218,2.281810922
622117.218,-9.401823327,2.562507191,2.125359571
622126.9836,-9.361071852,2.687087065,2.354353237
622136.7493,-9.47494809,2.41010382,2.505191009
622146.5149,-9.478439673,2.643120653,2.156032658
622156.2805,-9.438946136,2.445184651,2.259232553
622166.0461,-9.246752111,2.564957317,2.247865832
622175.8118,-9.284947392,2.685489831,2.27449156
622185.5774,-9.208375396,2.644787669,2.239383437
622195.343,-9.285080443,2.805223729,2.26118645
622205.1086,-9.517352624,2.682217829,2.110891427
622214.8743,-9.515921317,2.485080443,2.25402216
622224.6399,-9.439256589,2.724563746,2.228187295
622234.4055,-9.400658122,2.604837602,2.241880083
622244.1711,-9.246796461,2.604868616,2.243430796
622253.9368,-9.439526723,2.604023478,2.201173889
622263.7024,-9.402137812,2.481878223,2.093911129
622273.468,-9.404105355,2.797943135,1.897156769
622283.2336,-9.476871283,2.686257434,2.312871686
622292.9993,-9.322920921,2.606465849,2.323292472
622302.7649,-9.208464097,2.724610267,2.230513363
622312.5305,-9.401420142,2.563313562,2.165678088
622322.2961,-9.286918968,2.64154668,2.077334016
622332.0618,-9.402182162,2.521789522,2.089476092
622341.8274,-9.631140161,2.325411985,2.270599273
622351.593,-9.325787568,2.640732556,2.036627821
622361.3586,-9.28396362,2.527457375,2.37286874
622371.1243,-9.441183814,2.640709296,2.035464787
622380.8899,-9.402359564,2.681434719,2.071735945
622390.6555,-9.286338381,2.482707854,2.135392679
622400.4211,-9.363132128,2.722966512,2.148325619
622410.1868,-9.402270863,2.60161212,2.080606018
622419.9524,-9.285217526,2.564949563,2.247478154
622429.718,-9.324041776,2.52422414,2.211206997
622439.4836,-9.286785916,2.521812783,2.090639126
622449.2493,-9.363761097,2.561708575,2.085428733
622459.0149,-9.478395323,2.603209354,2.160467695
622468.7805,-9.365329488,2.518571794,1.928589705
622478.5461,-9.401420142,2.563313562,2.165678088
622488.3118,-9.363043428,2.643143914,2.157195692
622498.0774,-9.324981198,2.642345297,2.117264854
622507.843,-9.248453552,2.641554434,2.077721694
622517.6086,-9.287096369,2.801191877,2.059593868
622527.3743,-9.325206981,2.48189373,2.094686485
622537.1399,-9.362192707,2.604845355,2.242267761
622546.9055,-9.440288743,2.562499438,2.124971893
622556.6711,-9.555684988,2.562476177,2.123808859
622566.4368,-9.401508843,2.64313616,2.156808014
622576.2024,-9.247332698,2.723796143,2.189807169
622585.968,-9.440062959,2.722951005,2.147550262
622595.7336,-9.247917316,2.522626906,2.13134532
622605.4993,-9.285532011,2.484320594,2.216029712
622615.2649,-9.287052019,2.761280578,2.064028905
622625.0305,-9.324489312,2.563329069,2.166453444
622634.7961,-9.286874617,2.601635381,2.081769052
622644.5618,-9.362728943,2.723772883,2.188644135
622654.3274,-9.399448567,2.607256713,2.362835632
622664.093,-9.171522722,2.641569941,2.07849705
622673.8586,-9.478887209,2.682225582,2.111279105
622683.6243,-9.362954727,2.563321315,2.166065766
622693.3899,-9.438542951,2.445991021,2.299551069
622703.1555,-9.246393276,2.605674986,2.283749312
622712.9211,-9.286963318,2.68145798,2.072898979
622722.6868,-9.476693882,2.526612237,2.330611833
622732.4524,-9.361430687,2.646369395,2.318469757
622742.218,-9.441046731,2.880983462,2.049173083
622751.9836,-9.708248393,2.485041675,2.252083769
622761.7493,-9.708740279,2.564057904,2.20289518
622771.5149,-9.478125189,2.723749622,2.187481101
622781.2805,-9.554475433,2.564895288,2.244764408
622791.0461,-9.400343638,2.685466571,2.273328526
622800.8118,-9.515606832,2.565709412,2.285470602
622810.5774,-9.362551542,2.564127686,2.206384282
622820.343,-9.324892497,2.562522699,2.126134927
622830.1086,-9.708695929,2.524146604,2.207330216
622839.8743,-9.593747218,2.563274794,2.163739697
622849.6399,-9.555551937,2.442742279,2.13711397
622859.4055,-9.40213378,2.841886286,2.094314314
622869.1711,-9.439929908,2.603217107,2.160855373
622878.9368,-9.362595892,2.604038985,2.201949245
622888.7024,-9.440018609,2.683039706,2.151985299
622898.468,-9.477859087,2.484281826,2.214091321
622908.2336,-9.247647182,2.643167175,2.158358726
622917.9993,-9.324489312,2.563329069,2.166453444
622927.7649,-9.247691532,2.683078474,2.153923689
622937.5305,-9.400702473,2.644748901,2.237445047
622947.2961,-9.403077233,2.59999938,1.999968986
622957.0618,-9.479068642,2.481862715,2.093135773
622966.8274,-9.440647577,2.521781768,2.089088414
622976.593,-9.363849798,2.641531173,2.07655866
622986.3586,-9.401331441,2.483490963,2.174548161
622996.1243,-9.364341684,2.720547401,2.02737007
623005.8899,-9.555729339,2.602387476,2.119373822
623015.6555,-9.479246044,2.641507913,2.075395625
623025.4211,-9.134178161,2.559335985,1.966799253
623035.1868,-9.594420538,2.441928156,2.096407775
623044.9524,-9.403077233,2.59999938,1.999968986
623054.718,-9.516010018,2.564903042,2.245152086
623064.4836,-9.441139463,2.600797996,2.039899824
623074.2493,-9.439929908,2.603217107,2.160855373
623084.0149,-9.477814736,2.444370527,2.218526358
623093.7805,-9.286471432,2.602441751,2.122087569
623103.5461,-9.362418491,2.444393788,2.219689392
623113.3118,-9.478798508,2.602402984,2.120149179
623123.0774,-9.402182162,2.521789522,2.089476092
623132.843,-9.403077233,2.59999938,1.999968986
623142.6086,-9.210572756,2.44039295,2.019647523
623152.3743,-9.63351089,2.640670528,2.033526397
623162.1399,-9.400613772,2.564926302,2.24631512
623171.9055,-9.286604483,2.722175649,2.108782458
623181.6711,-9.286648833,2.762086948,2.104347422
623191.4368,-9.325831918,2.680643856,2.032192785
623201.2024,-9.362507191,2.524216386,2.210819319
623210.968,-9.479516178,2.520967644,2.04838222
623220.7336,-9.555414854,2.683016445,2.150822265
623230.4993,-9.362192707,2.604845355,2.242267761
623240.2649,-9.441586999,2.639902925,1.995146271
623250.0305,-9.324578012,2.643151667,2.15758337
623259.7961,-9.324533662,2.603240368,2.162018407
623269.5618,-9.555999473,2.481847208,2.092360417
623279.3274,-9.439349321,2.444378281,2.218914036
623289.093,-9.440691928,2.561693068,2.084653377
623298.8586,-9.555414854,2.683016445,2.150822265
623308.6243,-9.439123537,2.604829848,2.241492405
623318.3899,-9.555326154,2.603193847,2.159692339
623328.1555,-9.47897591,2.762048181,2.102409031
623337.9211,-9.402988532,2.520176781,2.008839059
623347.6868,-9.631809448,2.564073411,2.203670536
623357.4524,-9.439841207,2.523394509,2.169725446
623367.218,-9.442078885,2.718919154,1.945957681
623376.9836,-9.361519388,2.726191994,2.309599684
623386.7493,-9.208331046,2.604876369,2.243818474
623396.5149,-9.326057702,2.520192288,2.009614415
623406.2805,-9.286918968,2.64154668,2.077334016
623416.0461,-9.287725338,2.63993394,1.996696983
623425.8118,-9.593029549,2.644710133,2.235506656
623435.5774,-9.400569422,2.525015003,2.250750157
623445.343,-9.325876269,2.720555155,2.027757748
623455.1086,-9.477633303,2.644733394,2.236669691
623464.8743,-9.248768037,2.560925465,2.046273251
623474.6399,-9.478842859,2.642314283,2.115714142
623484.4055,-9.402674048,2.60080575,2.040287502
623494.1711,-9.288531708,2.638321199,1.916059951
623503.9368,-9.402718398,2.640717049,2.035852465
623513.7024,-9.209496251,2.562545959,2.127297962
623523.468,-9.250154994,2.718151551,1.907577555
623533.2336,-9.287410853,2.720562909,2.028145426
623542.9993,-9.516457553,2.604007971,2.200398533
623552.7649,-9.403750552,2.478652741,1.932637064
623562.5305,-9.594150404,2.562468424,2.123421181
623572.2961,-9.324622363,2.683062967,2.153148333
623582.0618,-9.439167888,2.644741147,2.237057369
623591.8274,-9.324622363,2.683062967,2.153148333
623601.593,-9.363132128,2.722966512,2.148325619
623611.3586,-9.362148357,2.564934056,2.246702798
623621.1243,-9.208375396,2.644787669,2.239383437
623630.8899,-9.364252983,2.640724803,2.036240143
623640.6555,-9.325340032,2.601627627,2.081381374
623650.4211,-9.285350577,2.684683461,2.234173044
623660.1868,-9.555326154,2.603193847,2.159692339
623669.9524,-9.402585347,2.520983152,2.049157576
623679.718,-9.555955122,2.441935909,2.096795453
623689.4836,-9.594327805,2.722113621,2.105681034
623699.2493,-9.323997426,2.484312841,2.215642034
623709.0149,-9.517755809,2.681411458,2.070572911
623718.7805,-9.478709807,2.522580385,2.129019252
623728.5461,-9.439212238,2.684652447,2.232622332
623738.3118,-9.439349321,2.444378281,2.218914036
623748.0774,-9.477230118,2.645539764,2.276988207
623757.843,-9.479560528,2.560878944,2.043947183
623767.6086,-9.439571073,2.643934777,2.196738852
623777.3743,-9.362059656,2.485111457,2.255572872
623787.1399,-9.326146403,2.600014887,2.000744342
623796.9055,-9.286382731,2.522619153,2.130957642
623806.6711,-9.440244392,2.522588139,2.12940693
623816.4368,-9.362551542,2.564127686,2.206384282
623826.2024,-9.479201693,2.601596613,2.079830662
623835.968,-9.439974258,2.643128407,2.156420336
623845.7336,-9.248768037,2.560925465,2.046273251
623855.4993,-9.286471432,2.602441751,2.122087569
623865.2649,-9.363761097,2.561708575,2.085428733
623875.0305,-9.401508843,2.64313616,2.156808014
623884.7961,-9.478173571,2.403652858,2.182642879
623894.5618,-9.594509238,2.521750754,2.087537702
623904.3274,-9.401420142,2.563313562,2.165678088
623914.093,-9.439974258,2.643128407,2.156420336
623923.8586,-9.594061703,2.482645825,2.132291255
623933.6243,-9.479112993,2.521774015,2.088700736
623943.3899,-9.63346654,2.600759229,2.037961434
623953.1555,-9.43845425,2.366168423,2.308421142
623962.9211,-9.595404309,2.599960612,1.998030596
623972.6868,-9.478576756,2.402846487,2.142324362
623982.4524,-9.478754158,2.562491684,2.124584215
623992.218,-9.401557225,2.323039396,2.151969792
624001.9836,-9.402270863,2.60161212,2.080606018
624011.7493,-9.324848147,2.522611399,2.130569964
624021.5149,-9.362954727,2.563321315,2.166065766
624031.2805,-9.43917192,2.284733084,2.236654183
624041.0461,-9.440691928,2.561693068,2.084653377
624050.8118,-9.400525071,2.485103704,2.255185194
624060.5774,-9.324533662,2.603240368,2.162018407
624070.343,-9.479290394,2.681419212,2.070960589
624080.1086,-9.554342382,2.44516139,2.258069518
624089.8743,-9.478484024,2.683031952,2.151597621
624099.6399,-9.592493313,2.525782606,2.289130283
624109.4055,-9.362866026,2.483498717,2.174935839
624119.1711,-9.325876269,2.720555155,2.027757748
624128.9368,-9.633736674,2.480218961,2.010948028
624138.7024,-9.362507191,2.524216386,2.210819319
624148.468,-9.554967319,2.643911516,2.195575818
624158.2336,-9.362507191,2.524216386,2.210819319
624167.9993,-9.402000729,2.722152388,2.107619424
624177.7649,-9.248320501,2.521820536,2.091026804
624187.5305,-9.325384383,2.641538927,2.076946338
624197.2961,-9.480322548,2.519354904,1.967745187
624207.0618,-9.324356261,2.443595171,2.179758554
624216.8274,-9.439482372,2.564112179,2.205608926
624226.593,-9.476919665,2.366160669,2.308033464
624236.3586,-9.556761493,2.440323168,2.016158421
624246.1243,-9.479516178,2.520967644,2.04838222
624255.8899,-9.403391718,2.519370411,1.968520543
624265.6555,-9.515606832,2.565709412,2.285470602
624275.4211,-9.402270863,2.60161212,2.080606018
624285.1868,-9.362551542,2.564127686,2.206384282
624294.9524,-9.401375792,2.523402262,2.170113124
624304.718,-9.401823327,2.562507191,2.125359571
624314.4836,-9.285217526,2.564949563,2.247478154
624324.2493,-9.324263528,2.723780636,2.189031813
624334.0149,-9.325251332,2.521805029,2.090251448
624343.7805,-9.323594241,2.485119211,2.25596055
624353.5461,-9.517219573,2.562483931,2.124196537
624363.3118,-9.325069898,2.722167896,2.10839478
624373.0774,-9.477500252,2.524999496,2.249974801
624382.843,-9.362728943,2.723772883,2.188644135
624392.6086,-9.362595892,2.604038985,2.201949245
624402.3743,-9.401105658,2.643942531,2.19712653
624412.1399,-9.556535709,2.600774736,2.03873679
624421.9055,-9.400702473,2.644748901,2.237445047
624431.6711,-9.248183418,2.762094702,2.1047351
624441.4368,-9.479516178,2.520967644,2.04838222
624451.2024,-9.479560528,2.560878944,2.043947183
624460.968,-9.441498298,2.560080327,2.004016345
624470.7336,-9.170986486,2.522642414,2.132120676
624480.4993,-9.478842859,2.642314283,2.115714142
624490.2649,-9.747520179,2.483421181,2.171059059
624500.0305,-9.478754158,2.562491684,2.124584215
624509.7961,-9.247961666,2.562538206,2.126910284
624519.5618,-9.401778977,2.522595892,2.129794608
624529.3274,-9.478709807,2.522580385,2.129019252
624539.093,-9.480052414,2.639895172,1.994758593
624548.8586,-9.516457553,2.604007971,2.200398533
624558.6243,-9.247155296,2.564150946,2.207547316
624568.3899,-9.326235103,2.679837485,1.991874268
624578.1555,-9.554386732,2.48507269,2.253634482
624587.9211,-9.402315213,2.64152342,2.076170982
624597.6868,-9.439929908,2.603217107,2.160855373
624607.4524,-9.516905089,2.6431129,2.15564498
624617.218,-9.631047429,2.605597451,2.279872531
624626.9836,-9.672246439,2.520122506,2.006125313
624636.7493,-9.326682639,2.718942414,1.947120715
624646.5149,-9.479649229,2.640701542,2.035077109
624656.2805,-9.401420142,2.563313562,2.165678088
624666.0461,-9.287814039,2.719756538,1.98782691
624675.8118,-9.670678049,2.563259287,2.162964341
624685.5774,-9.054602436,2.724641282,2.232064075
624695.343,-9.363490963,2.682248843,2.112442139
624705.1086,-9.363313562,2.522603646,2.130182286
624714.8743,-9.362595892,2.604038985,2.201949245
624724.6399,-9.363176479,2.762877812,2.143890582
624734.4055,-9.439974258,2.643128407,2.156420336
624744.1711,-9.402226513,2.561700821,2.085041055
624753.9368,-9.479157343,2.561685314,2.084265699
624763.7024,-9.364386034,2.760458701,2.022935033
624773.468,-9.479870981,2.840258039,2.012901925
624783.2336,-9.173582998,2.677449389,1.872469432
624792.9993,-9.401061307,2.604031231,2.201561567
624802.7649,-9.325428733,2.681450226,2.072511301
624812.5305,-9.364611818,2.600007133,2.000356664
624822.2961,-9.440018609,2.683039706,2.151985299
624832.0618,-9.323412807,2.685482078,2.274103882
624841.8274,-9.438317167,2.606442589,2.322129438
624851.593,-9.326682639,2.718942414,1.947120715
624861.3586,-9.516860738,2.6032016,2.160080017
624871.1243,-9.478842859,2.642314283,2.115714142
624880.8899,-9.324936847,2.602433998,2.121699891
624890.6555,-9.439974258,2.643128407,2.156420336
624900.4211,-9.364208633,2.600813504,2.04067518
624910.1868,-9.401778977,2.522595892,2.129794608
624919.9524,-9.400613772,2.564926302,2.24631512
624929.718,-9.556176874,2.641492405,2.074620269
624939.4836,-9.438542951,2.445991021,2.299551069
624949.2493,-9.284858691,2.605667233,2.283361634
624959.0149,-9.401823327,2.562507191,2.125359571
624968.7805,-9.477097067,2.525805866,2.290293317
624978.5461,-9.633107705,2.641476898,2.073844913
624988.3118,-9.555281803,2.563282548,2.164127375
624998.0774,-9.322650787,2.727006118,2.350305878
625007.843,-9.40213378,2.841886286,2.094314314
625017.6086,-9.593299683,2.524169865,2.208493251
625027.3743,-9.324759446,2.442788801,2.139440038
625037.1399,-9.479560528,2.560878944,2.043947183
625046.9055,-9.440736278,2.601604367,2.08021834
625056.6711,-9.286830267,2.561724082,2.086204089
625066.4368,-9.554116598,2.605612958,2.280647888
625076.2024,-9.443155389,2.596766145,1.838307243
625085.968,-9.439885557,2.563305808,2.16529041
625095.7336,-9.401420142,2.563313562,2.165678088
625105.4993,-9.402226513,2.561700821,2.085041055
625115.2649,-9.403480418,2.599193009,1.959650469
625125.0305,-9.361027502,2.647175765,2.358788274
625134.7961,-9.556132524,2.601581106,2.079055306
625144.5618,-9.439571073,2.643934777,2.196738852
625154.3274,-9.477411551,2.445176897,2.258844875
625164.093,-9.402270863,2.60161212,2.080606018
625173.8586,-9.633152055,2.681388198,2.069409876
625183.6243,-9.477859087,2.484281826,2.214091321
625193.3899,-9.326638289,2.679031115,1.951555752
625203.1555,-9.400077536,2.445998775,2.299938747
625212.9211,-9.403298985,2.799555876,1.977793802
625222.6868,-9.284769991,2.525844634,2.292231707
625232.4524,-9.479693579,2.680612841,2.030642072
625242.218,-9.440377443,2.642322036,2.11610182
625251.9836,-9.324444961,2.52341777,2.170888481
625261.7493,-9.478798508,2.602402984,2.120149179
625271.5149,-9.403254635,2.759644577,1.982228839
625281.2805,-9.283830569,2.407723477,2.38617385
625291.0461,-9.480947485,2.71810503,1.905251487
625300.8118,-9.554834268,2.524177619,2.208880929
625310.5774,-9.481390989,3.117218022,1.860901119
625320.343,-9.441316865,2.760443194,2.022159677
625330.1086,-9.555459205,2.722927745,2.146387228
625339.8743,-9.172776628,2.679062129,1.953106464
625349.6399,-9.441050763,2.520975398,2.048769898
625359.4055,-9.401823327,2.562507191,2.125359571
625369.1711,-9.286382731,2.522619153,2.130957642
625378.9368,-9.555596288,2.482653579,2.132678933
625388.7024,-9.516098718,2.64472564,2.236282013
625398.468,-9.403524769,2.639104309,1.955215433
625408.2336,-9.477544602,2.564910795,2.245539764
625417.9993,-9.362148357,2.564934056,2.246702798
625427.7649,-9.324219178,2.683869337,2.19346685
625437.5305,-9.399492917,2.647168012,2.358400595
625447.2961,-9.401464493,2.603224861,2.161243051
625457.0618,-9.324533662,2.603240368,2.162018407
625466.8274,-9.632256984,2.60317834,2.158916983
625476.593,-9.4805443,2.7189114,1.945570003
625486.3586,-9.364075582,2.481079606,2.05398029
625496.1243,-9.441409597,2.480257728,2.012886418
625505.8899,-9.247332698,2.723796143,2.189807169
625515.6555,-9.362507191,2.524216386,2.210819319
625525.4211,-9.324400611,2.48350647,2.175323517
625535.1868,-9.592940848,2.564887535,2.24437673
625544.9524,-9.362640243,2.643950284,2.197514208
625554.718,-9.362192707,2.604845355,2.242267761
625564.4836,-9.478306622,2.523386755,2.169337768
625574.2493,-9.362281408,2.684667954,2.233397688
625584.0149,-9.324444961,2.52341777,2.170888481
625593.7805,-9.323279756,2.56574818,2.287408993
625603.5461,-9.595178526,2.760412179,2.020608965
625613.3118,-9.478887209,2.682225582,2.111279105
625623.0774,-9.400928256,2.484297334,2.214866678
625632.843,-9.479290394,2.681419212,2.070960589
625642.6086,-9.362281408,2.684667954,2.233397688
625652.3743,-9.477633303,2.644733394,2.236669691
625662.1399,-9.671976305,2.640662774,2.033138719
625671.9055,-9.438990486,2.48509595,2.254797516
625681.6711,-9.439526723,2.604023478,2.201173889
625691.4368,-9.441945834,2.599185256,1.959262791
625701.2024,-9.477500252,2.524999496,2.249974801
625710.968,-9.437825281,2.527426361,2.371318028
625720.7336,-9.441139463,2.600797996,2.039899824
625730.4993,-9.440643546,2.881789832,2.089491599
625740.2649,-9.402403914,2.721346018,2.067300908
625750.0305,-9.516324502,2.484274073,2.213703643
625759.7961,-9.362999077,2.603232615,2.161630729
625769.5618,-9.516098718,2.64472564,2.236282013
625779.3274,-9.285532011,2.484320594,2.216029712
625789.093,-9.480185465,2.75962907,1.981453483
625798.8586,-9.477903437,2.524193126,2.209656285
625808.6243,-9.555999473,2.481847208,2.092360417
625818.3899,-9.516905089,2.6431129,2.15564498
625828.1555,-9.324489312,2.563329069,2.166453444
625837.9211,-9.248497903,2.681465733,2.073286657
625847.6868,-9.438228466,2.52661999,2.330999512
625857.4524,-9.325787568,2.640732556,2.036627821
625867.218,-9.63270452,2.642283269,2.11416343
625876.9836,-9.323638591,2.52503051,2.251525513
625886.7493,-9.478798508,2.602402984,2.120149179
625896.5149,-9.441453948,2.520169028,2.008451381
625906.2805,-9.40119839,2.363757065,2.187853272
625916.0461,-9.401420142,2.563313562,2.165678088
625925.8118,-9.516054368,2.604814341,2.240717049
625935.5774,-9.439796857,2.48348321,2.174160483
625945.343,-9.400883906,2.444386034,2.219301714
625955.1086,-9.554519783,2.604806587,2.240329371
625964.8743,-9.555237453,2.523371248,2.168562412
625974.6399,-9.439929908,2.603217107,2.160855373
625984.4055,-9.324936847,2.602433998,2.121699891
625994.1711,-9.28548766,2.444409295,2.220464748
626003.9368,-9.707845208,2.485848046,2.292402286
626013.7024,-9.554386732,2.48507269,2.253634482
626023.468,-9.556309925,2.761226303,2.061315159
626033.2336,-9.593702868,2.523363495,2.168174734
626042.9993,-9.440736278,2.601604367,2.08021834
626052.7649,-9.439079187,2.564918549,2.245927442
626062.5305,-9.324086127,2.564135439,2.20677196
626072.2961,-9.249348623,2.719764292,1.988214588
626082.0618,-9.555596288,2.482653579,2.132678933
626091.8274,-9.477947788,2.564104425,2.205221248
626101.593,-9.094233057,2.682303118,2.115155885
626111.3586,-9.363087778,2.683055213,2.152760655
626121.1243,-9.672472223,2.359670939,1.983546944
626130.8899,-9.402988532,2.520176781,2.008839059
626140.6555,-9.402540997,2.481071852,2.053592612
626150.4211,-9.365506889,2.678216991,1.910849558
626160.1868,-9.401823327,2.562507191,2.125359571
626169.9524,-9.248364852,2.561731835,2.086591767
626179.718,-9.401464493,2.603224861,2.161243051
626189.4836,-9.326102052,2.560103588,2.005179379
626199.2493,-9.286874617,2.601635381,2.081769052
626209.0149,-9.249259923,2.639941693,1.997084661
626218.7805,-9.32354989,2.445207912,2.260395587
626228.5461,-9.59621068,2.598347871,1.917393563
626238.3118,-9.286023896,2.563336822,2.166841122
626248.0774,-9.631317563,2.485057183,2.252859126
626257.843,-9.287277802,2.600829011,2.041450536
626267.6086,-9.515159297,2.526604483,2.330224155
626277.3743,-9.40285145,2.760450947,2.022547355
626287.1399,-9.555237453,2.523371248,2.168562412
626296.9055,-9.326638289,2.679031115,1.951555752
626306.6711,-9.250066293,2.638328953,1.916447629
626316.4368,-9.363761097,2.561708575,2.085428733
626326.2024,-9.323594241,2.485119211,2.25596055
626335.968,-9.286201298,2.722982019,2.149100975
626345.7336,-9.478798508,2.602402984,2.120149179
626355.4993,-9.401150008,2.68385383,2.192691494
626365.2649,-9.477141417,2.565717166,2.28585828
626375.0305,-9.401823327,2.562507191,2.125359571
626384.7961,-9.209899436,2.561739589,2.086979445
626394.5618,-9.517175223,2.522572631,2.128631574
626404.3274,-9.475976212,2.608047576,2.402378792
626414.093,-9.210346972,2.600844518,2.042225892
626423.8586,-9.553132826,2.447580501,2.379025067
626433.6243,-9.555729339,2.602387476,2.119373822
626443.3899,-9.477455902,2.485088197,2.254409838
626453.1555,-9.478350973,2.563298055,2.164902732
626462.9211,-9.402718398,2.640717049,2.035852465
626472.6868,-9.286697216,2.441990184,2.0995092
626482.4524,-9.440288743,2.562499438,2.124971893
626492.218,-9.248364852,2.561731835,2.086591767
626501.9836,-9.287366503,2.680651609,2.032580463
626511.7493,-9.517892892,2.441137292,2.056864615
626521.5149,-9.288620409,2.718143798,1.907189877
626531.2805,-9.325384383,2.641538927,2.076946338
626541.0461,-9.363357912,2.562514945,2.125747249
626550.8118,-9.400166236,2.525821373,2.291068673
626560.5774,-9.400702473,2.644748901,2.237445047
626570.343,-9.441095113,2.560886697,2.044334861
626580.1086,-9.439526723,2.604023478,2.201173889
626589.8743,-9.363087778,2.683055213,2.152760655
626599.6399,-9.439929908,2.603217107,2.160855373
626609.4055,-9.324848147,2.522611399,2.130569964
626619.1711,-9.440107309,2.762862305,2.143115226
626628.9368,-9.325025548,2.682256596,2.112829817
626638.7024,-9.4417644,2.799548122,1.977406124
626648.468,-9.477947788,2.564104425,2.205221248
626658.2336,-9.362414459,2.804401852,2.220092578
626667.9993,-9.364744869,2.719741031,1.987051553
626677.7649,-9.441631349,2.679814225,1.990711234
626687.5305,-9.325473084,2.721361525,2.068076264
626697.2961,-9.593432734,2.643903763,2.19518814
626707.0618,-9.171163887,2.682287611,2.114380529
626716.8274,-9.13099703,2.605698247,2.284912346
626726.593,-9.557652532,2.87854109,1.9270545
626736.3586,-9.632660169,2.602371969,2.118598466
626746.1243,-9.556265575,2.721315004,2.065750196
626755.8899,-9.401686244,2.802781357,2.139067867
626765.6555,-9.286963318,2.68145798,2.072898979
626775.4211,-9.440333093,2.602410737,2.120536857
626785.1868,-9.440780629,2.641515666,2.075783303
626794.9524,-9.325787568,2.640732556,2.036627821
626804.718,-9.210480023,2.720578416,2.028920782
626814.4836,-9.400702473,2.644748901,2.237445047
626824.2493,-9.248901088,2.680659363,2.032968141
626834.0149,-9.400162204,2.885829437,2.291471858
626843.7805,-9.325964969,2.800377753,2.018887674
626853.5461,-9.478036488,2.643927023,2.196351174
626863.3118,-9.402359564,2.681434719,2.071735945
626873.0774,-9.32274352,2.446820652,2.341032619
626882.843,-9.287676956,2.960030704,2.001535205
626892.6086,-9.555148752,2.44354865,2.177432486
626902.3743,-9.439929908,2.603217107,2.160855373
626912.1399,-9.67076675,2.643081885,2.154094268
626921.9055,-9.631898149,2.643896009,2.194800462
626931.6711,-9.364700519,2.679829732,1.99148659
626941.4368,-9.362640243,2.643950284,2.197514208
626951.2024,-9.555011669,2.683822816,2.191140781
626960.968,-9.207480325,2.566577811,2.328890543
626970.7336,-9.324936847,2.602433998,2.121699891
626980.4993,-9.441139463,2.600797996,2.039899824
626990.2649,-9.441183814,2.640709296,2.035464787
627000.0305,-9.477544602,2.564910795,2.245539764
627009.7961,-9.479423445,2.80115311,2.057655478
627019.5618,-9.518025943,2.56087119,2.043559505
627029.3274,-9.323997426,2.484312841,2.215642034
627039.093,-9.325650485,2.881006722,2.050336117
627048.8586,-9.364567468,2.560095834,2.004791701
627058.6243,-9.364656168,2.639918433,1.995921627
627068.3899,-9.477859087,2.484281826,2.214091321
627078.1555,-9.364208633,2.600813504,2.04067518
627087.9211,-9.327041474,2.678224745,1.911237236
627097.6868,-9.286156948,2.68307072,2.153536011
627107.4524,-9.440288743,2.562499438,2.124971893
627117.218,-9.248276151,2.481909237,2.095461841
627126.9836,-9.363402262,2.602426244,2.121312213
627136.7493,-9.325473084,2.721361525,2.068076264
627146.5149,-9.478350973,2.563298055,2.164902732
627156.2805,-9.555640638,2.522564878,2.128243896
627166.0461,-9.288398657,2.518587301,1.929365061
627175.8118,-9.286515782,2.642353051,2.117652532
627185.5774,-9.364075582,2.481079606,2.05398029
627195.343,-9.440510494,2.762055934,2.102796709
627205.1086,-9.364700519,2.679829732,1.99148659
627214.8743,-9.594327805,2.722113621,2.105681034
627224.6399,-9.285306227,2.644772162,2.238608081
627234.4055,-9.478572725,2.762854551,2.142727548
627244.1711,-9.478798508,2.602402984,2.120149179
627253.9368,-9.555370504,2.643105146,2.155257302
627263.7024,-9.516546254,2.683830569,2.191528459
627273.468,-9.324892497,2.562522699,2.126134927
627283.2336,-9.325340032,2.601627627,2.081381374
627292.9993,-9.442349019,2.598378886,1.918944275
627302.7649,-9.24921154,2.960038458,2.001922883
627312.5305,-9.325787568,2.640732556,2.036627821
627322.2961,-9.477947788,2.564104425,2.205221248
627332.0618,-9.402315213,2.64152342,2.076170982
627341.8274,-9.478306622,2.523386755,2.169337768
627351.593,-9.402448264,2.761257317,2.062865871
627361.3586,-9.517086522,2.442750033,2.137501648
627371.1243,-9.324799764,2.842708164,2.135408186
627380.8899,-9.323771642,2.644764408,2.238220403
627390.6555,-9.594372155,2.76202492,2.101245997
627400.4211,-9.209943787,2.601650888,2.082544409
627410.1868,-9.478306622,2.523386755,2.169337768
627419.9524,-9.48058865,2.758822699,1.941134966
627429.718,-9.477992138,2.604015724,2.200786211
627439.4836,-9.285753762,2.683877091,2.193854528
627449.2493,-9.363402262,2.602426244,2.121312213
627459.0149,-9.401238709,2.763676428,2.18382142
627468.7805,-9.363357912,2.562514945,2.125747249
627478.5461,-9.480008064,2.599983873,1.99919363
627488.3118,-9.478754158,2.562491684,2.124584215
627498.0774,-9.438946136,2.445184651,2.259232553
627507.843,-9.402448264,2.761257317,2.062865871
627517.6086,-9.324892497,2.562522699,2.126134927
627527.3743,-9.441050763,2.520975398,2.048769898
627537.1399,-9.247735883,2.722989773,2.149488653
627546.9055,-9.517396975,2.722129128,2.10645639
627556.6711,-9.249437324,2.79958689,1.979344514
627566.4368,-9.441365247,2.440346429,2.017321455
627576.2024,-9.401641894,2.762870058,2.143502904
627585.968,-9.323638591,2.52503051,2.251525513
627595.7336,-9.400613772,2.564926302,2.24631512
627605.4993,-9.325251332,2.521805029,2.090251448
627615.2649,-9.478887209,2.682225582,2.111279105
627625.0305,-9.325743218,2.600821257,2.041062858
627634.7961,-9.478887209,2.682225582,2.111279105
627644.5618,-9.477500252,2.524999496,2.249974801
627654.3274,-9.362059656,2.485111457,2.255572872
627664.093,-9.324892497,2.562522699,2.126134927
627673.8586,-9.746758159,2.524945221,2.247261055
627683.6243,-9.439393672,2.48428958,2.214478999
627693.3899,-9.285261877,2.604860862,2.243043118
627703.1555,-9.478754158,2.562491684,2.124584215
627712.9211,-9.364341684,2.720547401,2.02737007
627722.6868,-9.594372155,2.76202492,2.101245997
627732.4524,-9.439167888,2.644741147,2.237057369
627742.218,-9.286604483,2.722175649,2.108782458
627751.9836,-9.440377443,2.642322036,2.11610182
627761.7493,-9.287499554,2.800385507,2.019275352
627771.5149,-9.325787568,2.640732556,2.036627821
627781.2805,-9.209181767,2.643174928,2.158746404
627791.0461,-9.478842859,2.642314283,2.115714142
627800.8118,-9.324396579,2.843514534,2.175726702
627810.5774,-9.171163887,2.682287611,2.114380529
627820.343,-9.285842463,2.763699689,2.184984454
627830.1086,-9.478080839,2.683838323,2.191916137
627839.8743,-9.478125189,2.723749622,2.187481101
627849.6399,-9.47821389,2.803572221,2.178611027
627859.4055,-9.323815992,2.684675707,2.233785366
627869.1711,-9.171655773,2.761303839,2.065191939
627878.9368,-9.286471432,2.602441751,2.122087569
627888.7024,-9.326235103,2.679837485,1.991874268
627898.468,-9.554834268,2.524177619,2.208880929
627908.2336,-9.324936847,2.602433998,2.121699891
627917.9993,-9.248945438,2.720570662,2.028533104
627927.7649,-9.325876269,2.720555155,2.027757748
627937.5305,-9.438676002,2.565724919,2.286245958
627947.2961,-9.441857133,2.519362657,1.968132865
627957.0618,-9.323997426,2.484312841,2.215642034
627966.8274,-9.362281408,2.684667954,2.233397688
627976.593,-9.403569119,2.679015608,1.950780396
627986.3586,-9.324174827,2.643958038,2.197901886
627996.1243,-9.479649229,2.640701542,2.035077109
628005.8899,-9.59544866,2.639871911,1.993595559
628015.6555,-9.324400611,2.48350647,2.175323517
628025.4211,-9.400702473,2.644748901,2.237445047
628035.1868,-9.554519783,2.604806587,2.240329371
628044.9524,-9.44091368,2.761249564,2.062478193
628054.718,-9.324578012,2.643151667,2.15758337
628064.4836,-9.285350577,2.684683461,2.234173044
628074.2493,-9.402045079,2.762063688,2.103184387
628084.0149,-9.555596288,2.482653579,2.132678933
628093.7805,-9.476782582,2.606434835,2.32174176
628103.5461,-9.439974258,2.643128407,2.156420336
628113.3118,-9.246973863,2.764513813,2.225690648
628123.0774,-9.362595892,2.604038985,2.201949245
628132.843,-9.480455599,2.639088802,1.954440077
628142.6086,-9.477588953,2.604822095,2.241104727
628152.3743,-9.555818039,2.682210075,2.110503749
628162.1399,-9.325876269,2.720555155,2.027757748
628171.9055,-9.402093461,2.441966923,2.098346165
628181.6711,-9.404105355,2.797943135,1.897156769
628191.4368,-9.402093461,2.441966923,2.098346165
628201.2024,-9.479604879,2.600790243,2.039512146
628210.968,-9.364926302,2.519378164,1.968908221
628220.7336,-9.324174827,2.643958038,2.197901886
628230.4993,-9.363938499,2.721353772,2.067688586
628240.2649,-9.363269211,2.482692346,2.134617323
628250.0305,-9.364700519,2.679829732,1.99148659
628259.7961,-9.517981593,2.520959891,2.047994541
628269.5618,-9.401867678,2.602418491,2.120924535
628279.3274,-9.439526723,2.604023478,2.201173889
628289.093,-9.479423445,2.80115311,2.057655478
628298.8586,-9.248364852,2.561731835,2.086591767
628308.6243,-9.247602832,2.603255875,2.162793763
628318.3899,-9.402000729,2.722152388,2.107619424
628328.1555,-9.476290697,2.527418607,2.37093035
628337.9211,-9.439974258,2.643128407,2.156420336
628347.6868,-9.402674048,2.60080575,2.040287502
628357.4524,-9.362999077,2.603232615,2.161630729
628367.218,-9.325295682,2.561716328,2.085816411
628376.9836,-9.480141115,2.71971777,1.985888519
628386.7493,-9.517667109,2.60158886,2.079442984
628396.5149,-9.288084173,2.59921627,1.960813504
628406.2805,-9.47897591,2.762048181,2.102409031
628416.0461,-9.633063354,2.601565599,2.07827995
628425.8118,-9.287410853,2.720562909,2.028145426
628435.5774,-9.554160948,2.645524257,2.276212851
628445.343,-9.325561784,2.801184124,2.05920619
628455.1086,-9.516594636,2.363733805,2.186690237
628464.8743,-9.287680987,2.60002264,2.00113202
628474.6399,-9.209093066,2.56335233,2.167616478
628484.4055,-9.477903437,2.524193126,2.209656285
628494.1711,-9.288846193,2.55769223,1.884611508
628503.9368,-9.401956378,2.682241089,2.112054461
628513.7024,-9.401956378,2.682241089,2.112054461
628523.468,-9.361027502,2.647175765,2.358788274
628533.2336,-9.554608484,2.684629186,2.231459298
628542.9993,-9.401778977,2.522595892,2.129794608
628552.7649,-9.362325758,2.724579253,2.228962651
628562.5305,-9.401420142,2.563313562,2.165678088
628572.2961,-9.516324502,2.484274073,2.213703643
628582.0618,-9.248006017,2.602449505,2.122475247
628591.8274,-9.324444961,2.52341777,2.170888481
628601.593,-9.403480418,2.599193009,1.959650469
628611.3586,-9.47651648,2.36696704,2.348351981
628621.1243,-9.554205299,2.685435556,2.271777814
628630.8899,-9.440018609,2.683039706,2.151985299
628640.6555,-9.285261877,2.604860862,2.243043118
628650.4211,-9.247558481,2.563344576,2.1672288
628660.1868,-9.401553193,2.68304746,2.152372977
628669.9524,-9.477588953,2.604822095,2.241104727
628679.718,-9.440421794,2.682233336,2.111666783
628689.4836,-9.440824979,2.681426965,2.071348267
628699.2493,-9.325473084,2.721361525,2.068076264
628709.0149,-9.477766354,2.764467292,2.22336458
628718.7805,-9.363982849,2.761265071,2.063253549
628728.5461,-9.401016957,2.564119932,2.205996604
628738.3118,-9.286604483,2.722175649,2.108782458
628748.0774,-9.171252588,2.762110209,2.105510456
628757.843,-9.441050763,2.520975398,2.048769898
628767.6086,-9.478621107,2.442757787,2.137889326
628777.3743,-9.364656168,2.639918433,1.995921627
628787.1399,-9.477992138,2.604015724,2.200786211
628796.9055,-9.555551937,2.442742279,2.13711397
628806.6711,-9.287769688,2.679845239,1.992261946
628816.4368,-9.554072248,2.565701658,2.285082924
628826.2024,-9.555818039,2.682210075,2.110503749
628835.968,-9.63270452,2.642283269,2.11416343
628845.7336,-9.400525071,2.485103704,2.255185194
628855.4993,-9.402315213,2.64152342,2.076170982
628865.2649,-9.363446613,2.642337544,2.116877176
628875.0305,-9.364700519,2.679829732,1.99148659
628884.7961,-9.556176874,2.641492405,2.074620269
628894.5618,-9.401105658,2.643942531,2.19712653
628904.3274,-9.477677653,2.684644693,2.232234654
628914.093,-9.401194359,2.723765129,2.188256457
628923.8586,-9.401867678,2.602418491,2.120924535
628933.6243,-9.286963318,2.68145798,2.072898979
628943.3899,-9.439438022,2.524200879,2.210043963
628953.1555,-9.364434417,2.440361936,2.018096811
628962.9211,-9.323412807,2.685482078,2.274103882
628972.6868,-9.362595892,2.604038985,2.201949245
628982.4524,-9.517755809,2.681411458,2.070572911
628992.218,-9.401194359,2.723765129,2.188256457
629001.9836,-9.362507191,2.524216386,2.210819319
629011.7493,-9.248901088,2.680659363,2.032968141
629021.5149,-9.477722004,2.724555992,2.227799617
629031.2805,-9.400658122,2.604837602,2.241880083
629041.0461,-9.478080839,2.683838323,2.191916137
629050.8118,-9.285709412,2.643965791,2.198289564
629060.5774,-9.363446613,2.642337544,2.116877176
629070.343,-9.439841207,2.523394509,2.169725446
629080.1086,-9.632168283,2.523355741,2.167787056
629089.8743,-9.326146403,2.600014887,2.000744342
629099.6399,-9.517578408,2.521766261,2.088313058
629109.4055,-9.402403914,2.721346018,2.067300908
629119.1711,-9.247691532,2.683078474,2.153923689
629128.9368,-9.477141417,2.565717166,2.28585828
629138.7024,-9.519098416,2.798726245,1.936312251
629148.468,-9.594239104,2.642291022,2.114551108
629158.2336,-9.324892497,2.562522699,2.126134927
629167.9993,-9.248320501,2.521820536,2.091026804
629177.7649,-9.556132524,2.601581106,2.079055306
629187.5305,-9.287322153,2.64074031,2.037015499
629197.2961,-9.555596288,2.482653579,2.132678933
629207.0618,-9.440018609,2.683039706,2.151985299
629216.8274,-9.326638289,2.679031115,1.951555752
629226.593,-9.36407155,2.84108767,2.054383476
629236.3586,-9.325473084,2.721361525,2.068076264
629246.1243,-9.325787568,2.640732556,2.036627821
629255.8899,-9.440780629,2.641515666,2.075783303
629265.6555,-9.439438022,2.524200879,2.210043963
629275.4211,-9.364966621,2.919297527,1.964876369
629285.1868,-9.593344033,2.564081164,2.204058214
629294.9524,-9.479334744,2.721330511,2.066525552
629304.718,-9.439034837,2.52500725,2.250362479
629314.4836,-9.51856218,2.679798718,1.989935878
629324.2493,-9.478842859,2.642314283,2.115714142
629334.0149,-9.440244392,2.522588139,2.12940693
629343.7805,-9.362325758,2.724579253,2.228962651
629353.5461,-9.401150008,2.68385383,2.192691494
629363.3118,-9.478798508,2.602402984,2.120149179
629373.0774,-9.516993789,2.722935498,2.146774906
629382.843,-9.555459205,2.722927745,2.146387228
629392.6086,-9.477185768,2.605628465,2.281423244
629402.3743,-9.441228164,2.680620595,2.03102975
629412.1399,-9.479201693,2.601596613,2.079830662
629421.9055,-9.479112993,2.521774015,2.088700736
629431.6711,-9.248139068,2.722183403,2.109170136
629441.4368,-9.363894148,2.681442472,2.072123623
629451.2024,-9.440421794,2.682233336,2.111666783
629460.968,-9.363938499,2.721353772,2.067688586
629470.7336,-9.325473084,2.721361525,2.068076264
629480.4993,-9.169551146,2.685513092,2.275654594
629490.2649,-9.554475433,2.564895288,2.244764408
629500.0305,-9.400432339,2.765289169,2.264458453
629509.7961,-9.247961666,2.562538206,2.126910284
629519.5618,-9.172417793,2.719779799,1.988989944
629529.3274,-9.36080575,2.447619269,2.380963457
629539.093,-9.285306227,2.644772162,2.238608081
629548.8586,-9.47418607,2.45162786,2.581393005
629558.6243,-9.632256984,2.60317834,2.158916983
629568.3899,-9.438720352,2.605636218,2.281810922
629578.1555,-9.477411551,2.445176897,2.258844875
629587.9211,-9.286918968,2.64154668,2.077334016
629597.6868,-9.286560133,2.68226435,2.113217495
629607.4524,-9.363624014,2.801982741,2.099137029
629617.218,-9.517711459,2.641500159,2.075007947
629626.9836,-9.440421794,2.682233336,2.111666783
629636.7493,-9.441139463,2.600797996,2.039899824
629646.5149,-9.440107309,2.762862305,2.143115226
629656.2805,-9.324711064,2.762885565,2.14427826
629666.0461,-9.364386034,2.760458701,2.022935033
629675.8118,-9.326323804,2.759660084,1.983004195
629685.5774,-9.284947392,2.685489831,2.27449156
629695.343,-9.32605367,2.880200352,2.010017601
629705.1086,-9.248183418,2.762094702,2.1047351
629714.8743,-9.325876269,2.720555155,2.027757748
629724.6399,-9.171700123,2.801215138,2.060756903
629734.4055,-9.325340032,2.601627627,2.081381374
629744.1711,-9.364430385,2.80037,2.018499996
629753.9368,-9.324666713,2.722974266,2.148713297
629763.7024,-9.288350275,2.838684066,1.934203283
629773.468,-9.401956378,2.682241089,2.112054461
629783.2336,-9.363894148,2.681442472,2.072123623
629792.9993,-9.36407155,2.84108767,2.054383476
629802.7649,-9.287322153,2.64074031,2.037015499
629812.5305,-9.286693184,2.801998248,2.099912385
629822.2961,-9.245764307,2.766932924,2.346646197
629832.0618,-9.324622363,2.683062967,2.153148333
629841.8274,-9.325114249,2.762079195,2.103959744
629851.593,-9.439526723,2.604023478,2.201173889
629861.3586,-9.402448264,2.761257317,2.062865871
629871.1243,-9.248630954,2.801199631,2.059981547
629880.8899,-9.402762749,2.680628349,2.031417428
629890.6555,-9.284366805,2.526651004,2.332550224
629900.4211,-9.286334349,2.842715917,2.135795864
629910.1868,-9.325743218,2.600821257,2.041062858
629919.9524,-9.248409202,2.601643135,2.08215673
629929.718,-9.402359564,2.681434719,2.071735945
629939.4836,-9.287277802,2.600829011,2.041450536
629949.2493,-9.401194359,2.723765129,2.188256457
629959.0149,-9.362551542,2.564127686,2.206384282
629968.7805,-9.403613469,2.718926907,1.946345359
629978.5461,-9.324578012,2.643151667,2.15758337
629988.3118,-9.363535314,2.722160142,2.108007102
629998.0774,-9.286604483,2.722175649,2.108782458
630007.843,-9.287007668,2.721369279,2.068463942
630017.6086,-9.322473386,2.567360921,2.368046025
630027.3743,-9.325473084,2.721361525,2.068076264
630037.1399,-9.401508843,2.64313616,2.156808014
630046.9055,-9.170853434,2.402908516,2.145425787
630056.6711,-9.442078885,2.718919154,1.945957681
630066.4368,-9.285753762,2.683877091,2.193854528
630076.2024,-9.286918968,2.64154668,2.077334016
630085.968,-9.402226513,2.561700821,2.085041055
630095.7336,-9.286068247,2.603248122,2.162406085
630105.4993,-9.401912028,2.64232979,2.116489498
630115.2649,-9.325295682,2.561716328,2.085816411
630125.0305,-9.324086127,2.564135439,2.20677196
630134.7961,-9.287007668,2.721369279,2.068463942
630144.5618,-9.40208943,2.801974987,2.098749351
630154.3274,-9.4416757,2.719725524,1.986276197
630164.093,-9.401867678,2.602418491,2.120924535
630173.8586,-9.518340428,2.480242221,2.012111062
630183.6243,-9.48058865,2.758822699,1.941134966
630193.3899,-9.325743218,2.600821257,2.041062858
630203.1555,-9.478350973,2.563298055,2.164902732
630212.9211,-9.250513828,2.677433882,1.871694076
630222.6868,-9.324400611,2.48350647,2.175323517
630232.4524,-9.287007668,2.721369279,2.068463942
630242.218,-9.481128918,2.517742163,1.887108154
630251.9836,-9.402718398,2.640717049,2.035852465
630261.7493,-9.210838858,2.679860746,1.993037302
630271.5149,-9.364208633,2.600813504,2.04067518
630281.2805,-9.285261877,2.604860862,2.243043118
630291.0461,-9.439571073,2.643934777,2.196738852
630300.8118,-9.439929908,2.603217107,2.160855373
630310.5774,-9.40132741,2.843499027,2.174951346
630320.343,-9.363402262,2.602426244,2.121312213
630330.1086,-9.324489312,2.563329069,2.166453444
630339.8743,-9.288128523,2.639127569,1.956378467
630349.6399,-9.671307018,2.402001349,2.100067456
630359.4055,-9.362196739,2.244837292,2.241864576
630369.1711,-9.171611423,2.72139254,2.069626976
630378.9368,-9.286560133,2.68226435,2.113217495
630388.7024,-9.326682639,2.718942414,1.947120715
630398.468,-9.555459205,2.722927745,2.146387228
630408.2336,-9.402988532,2.520176781,2.008839059
630417.9993,-9.247691532,2.683078474,2.153923689
630427.7649,-9.477185768,2.605628465,2.281423244
630437.5305,-9.364789219,2.75965233,1.982616517
630447.2961,-9.323457158,2.725393377,2.269668845
630457.0618,-9.363402262,2.602426244,2.121312213
630466.8274,-9.362192707,2.604845355,2.242267761
630476.593,-9.322832221,2.526643251,2.332162546
630486.3586,-9.400972607,2.524208633,2.210431641
630496.1243,-9.401823327,2.562507191,2.125359571
630505.8899,-9.208955983,2.803626495,2.181324773
630515.6555,-9.362950695,2.923329379,2.166468951
630525.4211,-9.325251332,2.521805029,2.090251448
630535.1868,-9.555193102,2.483459949,2.172997449
630544.9524,-9.363087778,2.683055213,2.152760655
630554.718,-9.517308274,2.642306529,2.115326464
630564.4836,-9.325069898,2.722167896,2.10839478
630574.2493,-9.363087778,2.683055213,2.152760655
630584.0149,-9.632212634,2.56326704,2.163352019
630593.7805,-9.402315213,2.64152342,2.076170982
630603.5461,-9.439167888,2.644741147,2.237057369
630613.3118,-9.287322153,2.64074031,2.037015499
630623.0774,-9.402674048,2.60080575,2.040287502
630632.843,-9.324130477,2.604046738,2.202336923
630642.6086,-9.402359564,2.681434719,2.071735945
630652.3743,-9.440421794,2.682233336,2.111666783
630662.1399,-9.402629698,2.560894451,2.044722539
630671.9055,-9.594642289,2.641484652,2.074232591
630681.6711,-9.21191133,2.917715801,1.885790049
630691.4368,-9.439929908,2.603217107,2.160855373
630701.2024,-9.363357912,2.562514945,2.125747249
630710.968,-9.401597544,2.722958759,2.14793794
630720.7336,-9.247602832,2.603255875,2.162793763
630730.4993,-9.248497903,2.681465733,2.073286657
630740.2649,-9.400746823,2.6846602,2.23301001
630750.0305,-9.286427082,2.562530452,2.126522606
630759.7961,-9.633063354,2.601565599,2.07827995
630769.5618,-9.401508843,2.64313616,2.156808014
630779.3274,-9.170224466,2.564166453,2.208322672
630789.093,-9.285979546,2.523425523,2.171276159
630798.8586,-9.441228164,2.680620595,2.03102975
630808.6243,-9.249574407,2.559312724,1.965636218
630818.3899,-9.402718398,2.640717049,2.035852465
630828.1555,-9.247066595,2.484328348,2.21641739
630837.9211,-9.056215177,2.7214158,2.07079001
630847.6868,-9.440288743,2.562499438,2.124971893
630857.4524,-9.440736278,2.601604367,2.08021834
630867.218,-9.556176874,2.641492405,2.074620269
630876.9836,-9.555729339,2.602387476,2.119373822
630886.7493,-9.401150008,2.68385383,2.192691494
630896.5149,-9.323412807,2.685482078,2.274103882
630906.2805,-9.480008064,2.599983873,1.99919363
630916.0461,-9.364474735,2.840281299,2.014064959
630925.8118,-9.325384383,2.641538927,2.076946338
630935.5774,-9.403480418,2.599193009,1.959650469
630945.343,-9.478395323,2.603209354,2.160467695
630955.1086,-9.592493313,2.525782606,2.289130283
630964.8743,-9.209540602,2.602457258,2.122862925
630974.6399,-9.403258667,2.399636513,1.981825653
630984.4055,-9.402452296,2.401249254,2.062462686
630994.1711,-9.248856737,2.640748064,2.037403177
631003.9368,-9.592852147,2.485064936,2.253246804
631013.7024,-9.402674048,2.60080575,2.040287502
631023.468,-9.478262272,2.483475456,2.173772805
631033.2336,-9.479201693,2.601596613,2.079830662
631042.9993,-9.403794903,2.518564041,1.928202027
631052.7649,-9.402093461,2.441966923,2.098346165
631062.5305,-9.439796857,2.48348321,2.174160483
631072.2961,-9.326146403,2.600014887,2.000744342
631082.0618,-9.517263923,2.60239523,2.1197615
631091.8274,-9.362684593,2.683861583,2.193079172
631101.593,-9.248812387,2.600836764,2.041838214
631111.3586,-9.401508843,2.64313616,2.156808014
631121.1243,-9.440736278,2.601604367,2.08021834
631130.8899,-9.555237453,2.523371248,2.168562412
631140.6555,-9.323771642,2.644764408,2.238220403
631150.4211,-9.403343335,2.839467175,1.973358765
631160.1868,-9.401597544,2.722958759,2.14793794
631169.9524,-9.517667109,2.60158886,2.079442984
631179.718,-9.478798508,2.602402984,2.120149179
631189.4836,-9.248006017,2.602449505,2.122475247
631199.2493,-9.401641894,2.762870058,2.143502904
631209.0149,-9.438676002,2.565724919,2.286245958
631218.7805,-9.440018609,2.683039706,2.151985299
631228.5461,-9.286874617,2.601635381,2.081769052
631238.3118,-9.360624317,2.647982136,2.39910679
631248.0774,-9.555237453,2.523371248,2.168562412
631257.843,-9.286918968,2.64154668,2.077334016
631267.6086,-9.441498298,2.560080327,2.004016345
631277.3743,-9.325114249,2.762079195,2.103959744
631287.1399,-9.478931559,2.722136881,2.106844068
631296.9055,-9.516505935,2.283911206,2.195560311
631306.6711,-9.441990184,2.639096555,1.954827755
631316.4368,-9.402629698,2.560894451,2.044722539
631326.2024,-9.134758748,2.718174812,1.908740589
631335.968,-9.556491359,2.560863437,2.043171827
631345.7336,-9.325251332,2.521805029,2.090251448
631355.4993,-9.403436068,2.55928171,1.964085506
631365.2649,-9.361922573,2.725385623,2.269281167
631375.0305,-9.440824979,2.681426965,2.071348267
631384.7961,-9.400569422,2.525015003,2.250750157
631394.5618,-9.286112597,2.643159421,2.157971048
631404.3274,-9.287096369,2.801191877,2.059593868
631414.093,-9.324892497,2.562522699,2.126134927
631423.8586,-9.439615423,2.683846076,2.192303816
631433.6243,-9.554922968,2.604000217,2.200010855
631443.3899,-9.402359564,2.681434719,2.071735945
631453.1555,-9.438853403,2.725370116,2.268505811
631462.9211,-9.248630954,2.801199631,2.059981547
631472.6868,-9.285620711,2.564143193,2.207159638
631482.4524,-9.478798508,2.602402984,2.120149179
631492.218,-9.324622363,2.683062967,2.153148333
631501.9836,-9.323771642,2.644764408,2.238220403
631511.7493,-9.363982849,2.761265071,2.063253549
631521.5149,-9.441945834,2.599185256,1.959262791
631531.2805,-9.286918968,2.64154668,2.077334016
631541.0461,-9.402270863,2.60161212,2.080606018
631550.8118,-9.248272119,2.841917301,2.095865026
631560.5774,-9.47902026,2.80195948,2.097973995
631570.343,-9.43947834,2.924120242,2.206012111
631580.1086,-9.286648833,2.762086948,2.104347422
631589.8743,-9.364430385,2.80037,2.018499996
631599.6399,-9.248409202,2.601643135,2.08215673
631609.4055,-9.367030929,2.595168911,1.758445566
631619.1711,-9.287902739,2.799579137,1.978956836
631628.9368,-9.401778977,2.522595892,2.129794608
631638.7024,-9.480185465,2.75962907,1.981453483
631648.468,-9.325654517,2.520998659,2.049932932
631658.2336,-9.364027199,2.80117637,2.058818512
631667.9993,-9.403165934,2.679821978,1.991098912
631677.7649,-9.440288743,2.562499438,2.124971893
631687.5305,-9.437555147,2.647966629,2.398331434
631697.2961,-9.441498298,2.560080327,2.004016345
631707.0618,-9.362954727,2.563321315,2.166065766
631716.8274,-9.364252983,2.640724803,2.036240143
631726.593,-9.363761097,2.561708575,2.085428733
631736.3586,-9.478754158,2.562491684,2.124584215
631746.1243,-9.517126841,2.842669396,2.133469796
631755.8899,-9.478709807,2.522580385,2.129019252
631765.6555,-9.364075582,2.481079606,2.05398029
631775.4211,-9.326279454,2.719748785,1.987439231
631785.1868,-9.708966063,2.403606336,2.18031681
631794.9524,-9.556088173,2.561669807,2.083490343
631804.718,-9.556221225,2.681403705,2.070185233
631814.4836,-9.324130477,2.604046738,2.202336923
631824.2493,-9.364119932,2.520990905,2.049545254
631834.0149,-9.363805448,2.601619874,2.080993696
631843.7805,-9.286201298,2.722982019,2.149100975
631853.5461,-9.363805448,2.601619874,2.080993696
631863.3118,-9.518965365,2.678992347,1.949617362
631873.0774,-9.287096369,2.801191877,2.059593868
631882.843,-9.594150404,2.562468424,2.123421181
631892.6086,-9.287410853,2.720562909,2.028145426
631902.3743,-9.364567468,2.560095834,2.004791701
631912.1399,-9.285128825,2.485126965,2.256348228
631921.9055,-9.555640638,2.522564878,2.128243896
631931.6711,-9.286604483,2.722175649,2.108782458
631941.4368,-9.361027502,2.647175765,2.358788274
631951.2024,-9.173494297,2.59762679,1.881339505
631960.968,-9.326102052,2.560103588,2.005179379
631970.7336,-9.517308274,2.642306529,2.115326464
631980.4993,-9.210661456,2.520215549,2.01077745
631990.2649,-9.362148357,2.564934056,2.246702798
632000.061,-9.439571073,2.643934777,2.196738852
632009.7961,-9.401420142,2.563313562,2.165678088
632019.5618,-9.441006412,2.481064099,2.053204934
632029.3274,-9.479157343,2.561685314,2.084265699
632039.093,-9.440066991,2.362942942,2.147147077
632048.8586,-9.439974258,2.643128407,2.156420336
632058.6243,-9.479693579,2.680612841,2.030642072
632068.3899,-9.477992138,2.604015724,2.200786211
632078.1555,-9.324400611,2.48350647,2.175323517
632087.9211,-9.324936847,2.602433998,2.121699891
632097.6868,-9.402270863,2.60161212,2.080606018
632107.4524,-9.555459205,2.722927745,2.146387228
632117.218,-9.480008064,2.599983873,1.99919363
632126.9836,-9.402359564,2.681434719,2.071735945
632136.7493,-9.442211936,2.838653051,1.932652571
632146.5149,-9.478350973,2.563298055,2.164902732
632156.2805,-9.479290394,2.681419212,2.070960589
632166.0461,-9.364252983,2.640724803,2.036240143
632175.8118,-9.439438022,2.524200879,2.210043963
632185.5774,-9.170672001,2.603271382,2.163569119
632195.343,-9.325517434,2.761272825,2.063641227
632205.1086,-9.479693579,2.680612841,2.030642072
632214.8743,-9.324533662,2.603240368,2.162018407
632224.6399,-9.555237453,2.523371248,2.168562412
632234.4055,-9.325295682,2.561716328,2.085816411
632244.1711,-9.402762749,2.680628349,2.031417428
632253.9368,-9.672202089,2.480211207,2.01056035
632263.7024,-9.594194754,2.602379723,2.118986144
632273.468,-9.478439673,2.643120653,2.156032658
632283.2336,-9.555056019,2.723734115,2.186705745
632292.9993,-9.288172873,2.679038869,1.95194343
632302.7649,-9.324892497,2.562522699,2.126134927
632312.5305,-9.401464493,2.603224861,2.161243051
632322.2961,-9.249082521,2.480296496,2.014824808
632332.0618,-9.403480418,2.599193009,1.959650469
632341.8274,-9.364252983,2.640724803,2.036240143
632351.593,-9.287814039,2.719756538,1.98782691
632361.3586,-9.247961666,2.562538206,2.126910284
632371.1243,-9.479875013,2.480249975,2.01249874
632380.8899,-9.517755809,2.681411458,2.070572911
632390.6555,-9.401061307,2.604031231,2.201561567
632400.4211,-9.48049995,2.679000101,1.95000504
632410.1868,-9.400702473,2.644748901,2.237445047
632419.9524,-9.595404309,2.599960612,1.998030596
632429.718,-9.401912028,2.64232979,2.116489498
632439.4836,-9.439123537,2.604829848,2.241492405
632449.2493,-9.327400309,2.637507075,1.875353756
632459.0149,-9.362015306,2.445200158,2.260007909
632468.7805,-9.441498298,2.560080327,2.004016345
632478.5461,-9.401508843,2.64313616,2.156808014
632488.3118,-9.288531708,2.638321199,1.916059951
632498.0774,-9.328698565,2.714910563,1.745528134
632507.843,-9.287680987,2.60002264,2.00113202
632517.6086,-9.402359564,2.681434719,2.071735945
632527.3743,-9.364208633,2.600813504,2.04067518
632537.1399,-9.324844115,2.882619463,2.130973149
632546.9055,-9.477008366,2.445983268,2.299163391
632556.6711,-9.249707458,2.679046622,1.952331108
632566.4368,-9.633107705,2.641476898,2.073844913
632576.2024,-9.326726989,2.758853714,1.942685678
632585.968,-9.362370108,2.764490552,2.224527614
632595.7336,-9.479604879,2.600790243,2.039512146
632605.4993,-9.402315213,2.64152342,2.076170982
632615.2649,-9.286515782,2.642353051,2.117652532
632625.0305,-9.363624014,2.801982741,2.099137029
632634.7961,-9.403254635,2.759644577,1.982228839
632644.5618,-9.402762749,2.680628349,2.031417428
632654.3274,-9.249437324,2.79958689,1.979344514
632664.093,-9.363761097,2.561708575,2.085428733
632673.8586,-9.556894544,2.560057066,2.00285331
632683.6243,-9.441631349,2.679814225,1.990711234
632693.3899,-9.287007668,2.721369279,2.068463942
632703.1555,-9.249126872,2.520207795,2.010389772
632712.9211,-9.288039822,2.559304971,1.96524854
632722.6868,-9.324622363,2.683062967,2.153148333
632732.4524,-9.325384383,2.641538927,2.076946338
632742.218,-9.247780233,2.762901072,2.145053616
632751.9836,-9.249304273,2.679852992,1.992649624
632761.7493,-9.247735883,2.722989773,2.149488653
632771.5149,-9.479427477,2.441145046,2.057252293
632781.2805,-9.095039427,2.680690377,2.034518853
632791.0461,-9.363490963,2.682248843,2.112442139
632800.8118,-9.286112597,2.643159421,2.157971048
632810.5774,-9.094724942,2.761319346,2.065967295
632820.343,-9.555684988,2.562476177,2.123808859
632830.1086,-9.479423445,2.80115311,2.057655478
632839.8743,-9.2514089,2.755643739,1.782186969
632849.6399,-9.402000729,2.722152388,2.107619424
632859.4055,-9.438135734,2.806805455,2.34027277
632869.1711,-9.36563994,2.797950889,1.897544447
632878.9368,-9.287007668,2.721369279,2.068463942
632888.7024,-9.288394625,2.878595365,1.929768246
632898.468,-9.324037744,2.884232204,2.211610182
632908.2336,-9.324263528,2.723780636,2.189031813
632917.9993,-9.210209889,2.841118684,2.055934188
632927.7649,-9.286737534,2.841909547,2.095477348
632937.5305,-9.210701775,2.920134912,2.006745598
632947.2961,-9.51856218,2.679798718,1.989935878
632957.0618,-9.439123537,2.604829848,2.241492405
632966.8274,-9.556132524,2.601581106,2.079055306
632976.593,-9.555773689,2.642298776,2.114938786
632986.3586,-9.556132524,2.601581106,2.079055306
632996.1243,-9.443602925,2.635871074,1.79355369
633005.8899,-9.403480418,2.599193009,1.959650469
633015.6555,-9.364386034,2.760458701,2.022935033
633025.4211,-9.404016655,2.718120537,1.906026843
633035.1868,-9.323864375,2.364578943,2.228947144
633044.9524,-9.401823327,2.562507191,2.125359571
633054.718,-9.441542648,2.599991626,1.999581308
633064.4836,-9.479560528,2.560878944,2.043947183
633074.2493,-9.479334744,2.721330511,2.066525552
633084.0149,-9.477903437,2.524193126,2.209656285
633093.7805,-9.248409202,2.601643135,2.08215673
633103.5461,-9.517622758,2.56167756,2.083878021
633113.3118,-9.326279454,2.719748785,1.987439231
633123.0774,-9.479290394,2.681419212,2.070960589
633132.843,-9.365148054,2.718934661,1.946733037
633142.6086,-9.364926302,2.519378164,1.968908221
633152.3743,-9.363849798,2.641531173,2.07655866
633162.1399,-9.440377443,2.642322036,2.11610182
633171.9055,-9.287096369,2.801191877,2.059593868
633181.6711,-9.289426779,2.716531057,1.826552844
633191.4368,-9.401956378,2.682241089,2.112054461
633201.2024,-9.51708249,2.802758097,2.137904833
633210.968,-9.441542648,2.599991626,1.999581308
633220.7336,-9.402674048,2.60080575,2.040287502
633230.4993,-9.402629698,2.560894451,2.044722539
633240.2649,-9.440691928,2.561693068,2.084653377
633250.0305,-9.554922968,2.604000217,2.200010855
633259.7961,-9.439615423,2.683846076,2.192303816
633269.5618,-9.400254937,2.605643972,2.2821986
633279.3274,-9.441316865,2.760443194,2.022159677
633289.093,-9.401823327,2.562507191,2.125359571
633298.8586,-9.63274887,2.682194568,2.109728393
633308.6243,-9.439796857,2.48348321,2.174160483
633318.3899,-9.441990184,2.639096555,1.954827755
633328.1555,-9.326819722,2.478668248,1.93341242
633337.9211,-9.326102052,2.560103588,2.005179379
633347.6868,-9.595226908,2.440315415,2.015770743
633357.4524,-9.326549588,2.599208517,1.960425826
633367.218,-9.441453948,2.520169028,2.008451381
633376.9836,-9.555640638,2.522564878,2.128243896
633386.7493,-9.365015003,2.599200763,1.960038148
633396.5149,-9.595581711,2.759605809,1.980290448
633406.2805,-9.440288743,2.562499438,2.124971893
633416.0461,-9.441095113,2.560886697,2.044334861
633425.8118,-9.325295682,2.561716328,2.085816411
633435.5774,-9.480991836,2.758016329,1.90081645
633445.343,-9.402403914,2.721346018,2.067300908
633455.1086,-9.593299683,2.524169865,2.208493251
633464.8743,-9.595674443,2.479420344,1.97101719
633474.6399,-9.441498298,2.560080327,2.004016345
633484.4055,-9.479693579,2.680612841,2.030642072
633494.1711,-9.286604483,2.722175649,2.108782458
633503.9368,-9.440377443,2.642322036,2.11610182
633513.7024,-9.171655773,2.761303839,2.065191939
633523.468,-9.480233847,2.439532305,1.976615261
633533.2336,-9.555370504,2.643105146,2.155257302
633542.9993,-9.479693579,2.680612841,2.030642072
633552.7649,-9.517667109,2.60158886,2.079442984
633562.5305,-9.325428733,2.681450226,2.072511301
633572.2961,-9.557563831,2.798718491,1.935924573
633582.0618,-9.362551542,2.564127686,2.206384282
633591.8274,-9.441405566,2.840265792,2.013289603
633601.593,-9.441361215,2.800354493,2.01772464
633611.3586,-9.325743218,2.600821257,2.041062858
633621.1243,-9.364700519,2.679829732,1.99148659
633630.8899,-9.247917316,2.522626906,2.13134532
633640.6555,-9.440107309,2.762862305,2.143115226
633650.4211,-9.287366503,2.680651609,2.032580463
633660.1868,-9.479290394,2.681419212,2.070960589
633669.9524,-9.326593938,2.639119816,1.955990789
633679.718,-9.595134175,2.72050088,2.025044001
633689.4836,-9.403569119,2.679015608,1.950780396
633699.2493,-9.325964969,2.800377753,2.018887674
633709.0149,-9.440466144,2.722144635,2.107231746
633718.7805,-9.36559559,2.75803959,1.901979484
633728.5461,-9.51788886,2.801145356,2.0572678
633738.3118,-9.326323804,2.759660084,1.983004195
633748.0774,-9.480411249,2.599177502,1.958875113
633757.843,-9.402359564,2.681434719,2.071735945
633767.6086,-9.518070294,2.600782489,2.039124468
633777.3743,-9.401464493,2.603224861,2.161243051
633787.1399,-9.172417793,2.719779799,1.988989944
633796.9055,-9.327267257,2.517773177,1.888658867
633806.6711,-9.478439673,2.643120653,2.156032658
633816.4368,-9.400121886,2.485910074,2.29550371
633826.2024,-9.325831918,2.680643856,2.032192785
633835.968,-9.479334744,2.721330511,2.066525552
633845.7336,-9.363402262,2.602426244,2.121312213
633855.4993,-9.480096764,2.679806471,1.990323556
633865.2649,-9.401956378,2.682241089,2.112054461
633875.0305,-9.440736278,2.601604367,2.08021834
633884.7961,-9.441316865,2.760443194,2.022159677
633894.5618,-9.324981198,2.642345297,2.117264854
633904.3274,-9.286963318,2.68145798,2.072898979
633914.093,-9.325295682,2.561716328,2.085816411
633923.8586,-9.555370504,2.643105146,2.155257302
633933.6243,-9.516727687,2.483467703,2.173385127
633943.3899,-9.555193102,2.483459949,2.172997449
633953.1555,-9.133416141,2.600860025,2.043001248
633962.9211,-9.325876269,2.720555155,2.027757748
633972.6868,-9.402315213,2.64152342,2.076170982
633982.4524,-9.247917316,2.522626906,2.13134532
633992.218,-9.477052716,2.485894567,2.294728354
634001.9836,-9.594553589,2.561662053,2.083102665
634011.7493,-9.287007668,2.721369279,2.068463942
634021.5149,-9.248453552,2.641554434,2.077721694
634031.2805,-9.517263923,2.60239523,2.1197615
634041.0461,-9.671931955,2.600751475,2.037573756
634050.8118,-9.479112993,2.521774015,2.088700736
634060.5774,-9.479471827,2.481056345,2.052817256
634070.343,-9.324533662,2.603240368,2.162018407
634080.1086,-9.326146403,2.600014887,2.000744342
634089.8743,-9.478262272,2.483475456,2.173772805
634099.6399,-9.287277802,2.600829011,2.041450536
634109.4055,-9.400883906,2.444386034,2.219301714
634119.1711,-9.209584952,2.642368558,2.118427888
634128.9368,-9.286918968,2.64154668,2.077334016
634138.7024,-9.402807099,2.720539648,2.026982392
634148.468,-9.59549301,2.67978321,1.989160522
634158.2336,-9.747250045,2.603961449,2.198072465
634167.9993,-9.210838858,2.679860746,1.993037302
634177.7649,-9.556309925,2.761226303,2.061315159
634187.5305,-9.325517434,2.761272825,2.063641227
634197.2961,-9.40365782,2.758838206,1.941910322
634207.0618,-9.593388384,2.603992464,2.199623177
634216.8274,-9.519009715,2.718903646,1.945182325
634226.593,-9.325025548,2.682256596,2.112829817
634236.3586,-9.248453552,2.641554434,2.077721694
634246.1243,-9.325920619,2.760466454,2.023322711
634255.8899,-9.324892497,2.562522699,2.126134927
634265.6555,-9.47821389,2.803572221,2.178611027
634275.4211,-9.440554845,2.801967233,2.098361673
634285.1868,-9.322876571,2.56655455,2.327727509
634294.9524,-9.479112993,2.521774015,2.088700736
634304.718,-9.516638986,2.403645104,2.182255201
634314.4836,-9.479157343,2.561685314,2.084265699
634324.2493,-9.441228164,2.680620595,2.03102975
634334.0149,-9.47978228,2.76043544,2.021771999
634343.7805,-9.288487358,2.5984099,1.920494987
634353.5461,-9.594239104,2.642291022,2.114551108
634363.3118,-9.403121584,2.639910679,1.995533949
634373.0774,-9.632123933,2.483444442,2.172222093
634382.843,-9.478709807,2.522580385,2.129019252
634392.6086,-9.326505238,2.559297217,1.964860862
634402.3743,-9.516054368,2.604814341,2.240717049
634412.1399,-9.400299287,2.645555271,2.277763563
634421.9055,-9.400166236,2.525821373,2.291068673
634431.6711,-9.401150008,2.68385383,2.192691494
634441.4368,-9.475843161,2.488313678,2.415683903
634451.2024,-9.516324502,2.484274073,2.213703643
634460.968,-9.247288347,2.683884844,2.194242206
634470.7336,-9.24661906,2.445223419,2.261170943
634480.4993,-9.479246044,2.641507913,2.075395625
634490.2649,-9.595001124,2.600766982,2.038349112
634500.0305,-9.517308274,2.642306529,2.115326464
634509.7961,-9.440288743,2.562499438,2.124971893
634519.5618,-9.323638591,2.52503051,2.251525513
634529.3274,-9.40217813,2.881797586,2.089879277
634539.093,-9.322247602,2.727812488,2.390624394
634548.8586,-9.247288347,2.683884844,2.194242206
634558.6243,-9.286963318,2.68145798,2.072898979
634568.3899,-9.362192707,2.604845355,2.242267761
634578.1555,-9.325384383,2.641538927,2.076946338
634587.9211,-9.364341684,2.720547401,2.02737007
634597.6868,-9.362640243,2.643950284,2.197514208
634607.4524,-9.47902026,2.80195948,2.097973995
634617.218,-9.324755414,2.802796864,2.139843223
634626.9836,-9.553624712,2.52659673,2.329836477
634636.7493,-9.248586603,2.761288332,2.064416583
634646.5149,-9.478709807,2.522580385,2.129019252
634656.2805,-9.518921014,2.639081048,1.954052399
634666.0461,-9.360446915,2.488336939,2.416846937
634675.8118,-9.439974258,2.643128407,2.156420336
634685.5774,-9.324578012,2.643151667,2.15758337
634695.343,-9.440018609,2.683039706,2.151985299
634705.1086,-9.362999077,2.603232615,2.161630729
634714.8743,-9.552907043,2.608032069,2.401603436
634724.6399,-9.44091368,2.761249564,2.062478193
634734.4055,-9.555684988,2.562476177,2.123808859
634744.1711,-9.480141115,2.71971777,1.985888519
634753.9368,-9.403254635,2.759644577,1.982228839
634763.7024,-9.324396579,2.843514534,2.175726702
634773.468,-9.440244392,2.522588139,2.12940693
634783.2336,-9.248409202,2.601643135,2.08215673
634792.9993,-9.250961364,2.71653881,1.826940522
634802.7649,-9.325158599,2.801990494,2.099524707
634812.5305,-9.441586999,2.639902925,1.995146271
634822.2961,-9.440288743,2.562499438,2.124971893
634832.0618,-9.325654517,2.520998659,2.049932932
634841.8274,-9.555729339,2.602387476,2.119373822
634851.593,-9.479560528,2.560878944,2.043947183
634861.3586,-9.517667109,2.60158886,2.079442984
634871.1243,-9.402359564,2.681434719,2.071735945
634880.8899,-9.556850193,2.520145767,2.007288347
634890.6555,-9.325787568,2.640732556,2.036627821
634900.4211,-9.250513828,2.677433882,1.871694076
634910.1868,-9.401150008,2.68385383,2.192691494
634919.9524,-9.478931559,2.722136881,2.106844068
634929.718,-9.595045475,2.640678282,2.033914075
634939.4836,-9.517130872,2.482661332,2.133066611
634949.2493,-9.287052019,2.761280578,2.064028905
634959.0149,-9.441183814,2.640709296,2.035464787
634968.7805,-9.364027199,2.80117637,2.058818512
634978.5461,-9.248989789,2.760481961,2.024098067
634988.3118,-9.48058865,2.758822699,1.941134966
634998.0774,-9.555729339,2.602387476,2.119373822
635007.843,-9.593702868,2.523363495,2.168174734
635017.6086,-9.556221225,2.681403705,2.070185233
635027.3743,-9.402000729,2.722152388,2.107619424
635037.1399,-9.402270863,2.60161212,2.080606018
635046.9055,-9.441006412,2.481064099,2.053204934
635056.6711,-9.363716747,2.521797275,2.08986377
635066.4368,-9.439482372,2.564112179,2.205608926
635076.2024,-9.403165934,2.679821978,1.991098912
635085.968,-9.247199646,2.604062246,2.203112279
635095.7336,-9.517175223,2.522572631,2.128631574
635105.4993,-9.172058958,2.760497468,2.024873423
635115.2649,-9.402315213,2.64152342,2.076170982
635125.0305,-9.478080839,2.683838323,2.191916137
635134.7961,-9.326549588,2.599208517,1.960425826
635144.5618,-9.480366898,2.559266203,1.96331015
635154.3274,-9.402226513,2.561700821,2.085041055
635164.093,-9.785179224,2.485026168,2.251308413
635173.8586,-9.363894148,2.681442472,2.072123623
635183.6243,-9.440333093,2.602410737,2.120536857
635193.3899,-9.402581315,2.880991215,2.049560761
635203.1555,-9.247602832,2.603255875,2.162793763
635212.9211,-9.400928256,2.484297334,2.214866678
635222.6868,-9.325118281,2.402071131,2.103556558
635232.4524,-9.480947485,2.71810503,1.905251487
635242.218,-9.595134175,2.72050088,2.025044001
635251.9836,-9.593525467,2.363718298,2.185914881
635261.7493,-9.63346654,2.600759229,2.037961434
635271.5149,-9.556402658,2.481040838,2.0520419
635281.2805,-9.325384383,2.641538927,2.076946338
635291.0461,-9.516816388,2.563290301,2.164515054
635300.8118,-9.478350973,2.563298055,2.164902732
635310.5774,-9.402315213,2.64152342,2.076170982
635320.343,-9.516457553,2.604007971,2.200398533
635330.1086,-9.401508843,2.64313616,2.156808014
635339.8743,-9.363805448,2.601619874,2.080993696
635349.6399,-9.478887209,2.682225582,2.111279105
635359.4055,-9.400702473,2.644748901,2.237445047
635369.1711,-9.327174525,2.797958643,1.897932125
635378.9368,-9.323638591,2.52503051,2.251525513
635388.7024,-9.47973793,2.720524141,2.026207036
635398.468,-9.402762749,2.680628349,2.031417428
635408.2336,-9.439123537,2.604829848,2.241492405
635417.9993,-9.248409202,2.601643135,2.08215673
635427.7649,-9.479024292,2.441951416,2.097570809
635437.5305,-9.478306622,2.523386755,2.169337768
635447.2961,-9.517711459,2.641500159,2.075007947
635457.0618,-9.364297334,2.680636102,2.031805106
635466.8274,-9.286874617,2.601635381,2.081769052
635476.593,-9.401553193,2.68304746,2.152372977
635486.3586,-9.517308274,2.642306529,2.115326464
635496.1243,-9.55586239,2.722121374,2.106068712
635505.8899,-9.555818039,2.682210075,2.110503749
635515.6555,-9.400117854,2.845918138,2.295906895
635525.4211,-9.633063354,2.601565599,2.07827995
635535.1868,-9.477633303,2.644733394,2.236669691
635544.9524,-9.248497903,2.681465733,2.073286657
635554.718,-9.363805448,2.601619874,2.080993696
635564.4836,-9.478395323,2.603209354,2.160467695
635574.2493,-9.518517829,2.639887418,1.994370915
635584.0149,-9.324219178,2.683869337,2.19346685
635593.7805,-9.403210284,2.719733278,1.986663875
635603.5461,-9.671706171,2.761203042,2.060152125
635613.3118,-9.477363169,2.765273662,2.263683096
635623.0774,-9.248719655,2.881022229,2.051111473
635632.843,-9.401105658,2.643942531,2.19712653
635642.6086,-9.286963318,2.68145798,2.072898979
635652.3743,-9.441095113,2.560886697,2.044334861
635662.1399,-9.439438022,2.524200879,2.210043963
635671.9055,-9.477947788,2.564104425,2.205221248
635681.6711,-9.362999077,2.603232615,2.161630729
635691.4368,-9.402807099,2.720539648,2.026982392
635701.2024,-9.518429129,2.56006482,2.003240988
635710.968,-9.402492615,2.801168617,2.058430834
635720.7336,-9.285709412,2.643965791,2.198289564
635730.4993,-9.133996728,2.759698852,1.984942585
635740.2649,-9.439393672,2.48428958,2.214478999
635750.0305,-9.403077233,2.59999938,1.999968986
635759.7961,-9.479246044,2.641507913,2.075395625
635769.5618,-9.479560528,2.560878944,2.043947183
635779.3274,-9.364297334,2.680636102,2.031805106
635789.093,-9.555281803,2.563282548,2.164127375
635798.8586,-9.633869725,2.599952858,1.997642918
635808.6243,-9.478754158,2.562491684,2.124584215
635818.3899,-9.249348623,2.719764292,1.988214588
635828.186,-9.44024036,2.882596202,2.129810115
635837.9211,-9.592493313,2.525782606,2.289130283
635847.6868,-9.594597939,2.601573353,2.078667628
635857.4524,-9.364252983,2.640724803,2.036240143
635867.218,-9.478395323,2.603209354,2.160467695
635876.9836,-9.246840812,2.644779915,2.238995759
635886.7493,-9.480366898,2.559266203,1.96331015
635896.5149,-9.401553193,2.68304746,2.152372977
635906.2805,-9.47897591,2.762048181,2.102409031
635916.0461,-9.285665062,2.604054492,2.202724601
635925.8118,-9.479157343,2.561685314,2.084265699
635935.5774,-9.36330953,2.882611709,2.130585471
635945.343,-9.363446613,2.642337544,2.116877176
635955.1086,-9.249796159,2.758869221,1.943461034
635964.8743,-9.518114644,2.640693789,2.034689431
635974.6399,-9.401956378,2.682241089,2.112054461
635984.4055,-9.323727292,2.604853109,2.24265544
635994.1711,-9.402403914,2.721346018,2.067300908
636003.9368,-9.364341684,2.720547401,2.02737007
636013.7024,-9.40285145,2.760450947,2.022547355
636023.468,-9.479290394,2.681419212,2.070960589
636033.2336,-9.477097067,2.525805866,2.290293317
636042.9993,-9.481124887,2.877750227,1.88751134
636052.7649,-9.401690276,2.442773294,2.138664682
636062.5305,-9.363938499,2.721353772,2.067688586
636072.2961,-9.441139463,2.600797996,2.039899824
636082.0618,-9.170224466,2.564166453,2.208322672
636091.8274,-9.287322153,2.64074031,2.037015499
636101.593,-9.441945834,2.599185256,1.959262791
636111.3586,-9.6319425,2.683807309,2.190365425
636121.1243,-9.478931559,2.722136881,2.106844068
636130.8899,-9.478842859,2.642314283,2.115714142
636140.6555,-9.479334744,2.721330511,2.066525552
636150.4211,-9.480411249,2.599177502,1.958875113
636160.1868,-9.51856218,2.679798718,1.989935878
636169.9524,-9.479246044,2.641507913,2.075395625
636179.718,-9.478572725,2.762854551,2.142727548
636189.4836,-9.328206679,2.635894334,1.794716724
636199.2493,-9.363624014,2.801982741,2.099137029
636209.0149,-9.477322851,2.365354299,2.267714948
636218.7805,-9.326323804,2.759660084,1.983004195
636228.5461,-9.516905089,2.6431129,2.15564498
636238.3118,-9.401420142,2.563313562,2.165678088
636248.0774,-9.440107309,2.762862305,2.143115226
636257.843,-9.324263528,2.723780636,2.189031813
636267.6086,-9.365821373,2.597588022,1.879401115
636277.3743,-9.325428733,2.681450226,2.072511301
636287.1399,-9.479649229,2.640701542,2.035077109
636296.9055,-9.248183418,2.762094702,2.1047351
636306.6711,-9.248901088,2.680659363,2.032968141
636316.4368,-9.479649229,2.640701542,2.035077109
636326.2024,-9.44095803,2.801160863,2.058043156
636335.968,-9.478842859,2.642314283,2.115714142
636345.7336,-9.516010018,2.564903042,2.245152086
636355.4993,-9.248719655,2.881022229,2.051111473
636365.2649,-9.362281408,2.684667954,2.233397688
636375.0305,-9.403077233,2.59999938,1.999968986
636384.7961,-9.593835919,2.643097392,2.154869624
636394.5618,-9.401778977,2.522595892,2.129794608
636404.3274,-9.325654517,2.520998659,2.049932932
636414.093,-9.478754158,2.562491684,2.124584215
636423.8586,-9.325295682,2.561716328,2.085816411
636433.6243,-9.480052414,2.639895172,1.994758593
636443.3899,-9.326726989,2.758853714,1.942685678
636453.1555,-9.327178557,2.437950579,1.89752894
636462.9211,-9.440691928,2.561693068,2.084653377
636472.6868,-9.401420142,2.563313562,2.165678088
636482.4524,-9.325069898,2.722167896,2.10839478
636492.218,-9.479693579,2.680612841,2.030642072
636501.9836,-9.593299683,2.524169865,2.208493251
636511.7493,-9.480721701,2.878556597,1.927829856
636521.5149,-9.479068642,2.481862715,2.093135773
636531.2805,-9.554834268,2.524177619,2.208880929
636541.0461,-9.478798508,2.602402984,2.120149179
636550.8118,-9.439929908,2.603217107,2.160855373
636560.5774,-9.362999077,2.603232615,2.161630729
636570.343,-9.478798508,2.602402984,2.120149179
636580.1086,-9.478484024,2.683031952,2.151597621
636589.8743,-9.365325456,2.878579858,1.92899289
636599.6399,-9.401016957,2.564119932,2.205996604
636609.4055,-9.401194359,2.723765129,2.188256457
636619.1711,-9.400972607,2.524208633,2.210431641
636628.9368,-9.555056019,2.723734115,2.186705745
636638.7024,-9.593835919,2.643097392,2.154869624
636648.468,-9.439615423,2.683846076,2.192303816
636658.2336,-9.324803796,2.4827001,2.135005001
636667.9993,-9.401956378,2.682241089,2.112054461
636677.7649,-9.670948183,2.442719019,2.135950935
636687.5305,-9.287277802,2.600829011,2.041450536
636697.2961,-9.248320501,2.521820536,2.091026804
636707.0618,-9.363357912,2.562514945,2.125747249
636716.8274,-9.40285145,2.760450947,2.022547355
636726.593,-9.517534058,2.481854962,2.092748095
636736.3586,-9.480366898,2.559266203,1.96331015
636746.1243,-9.441272514,2.720531894,2.026594714
636755.8899,-9.440333093,2.602410737,2.120536857
636765.6555,-9.479512146,2.880975708,2.048785405
636775.4211,-9.47973793,2.720524141,2.026207036
636785.1868,-9.401508843,2.64313616,2.156808014
636794.9524,-9.479112993,2.521774015,2.088700736
636804.718,-9.324981198,2.642345297,2.117264854
636814.4836,-9.554475433,2.564895288,2.244764408
636824.2493,-9.401150008,2.68385383,2.192691494
636834.0149,-9.670230513,2.524154358,2.207717894
636843.7805,-9.631494964,2.64470238,2.235118978
636853.5461,-9.400658122,2.604837602,2.241880083
636863.3118,-9.632301334,2.643089639,2.154481946
636873.0774,-9.362507191,2.524216386,2.210819319
636882.843,-9.593702868,2.523363495,2.168174734
636892.6086,-9.479157343,2.561685314,2.084265699
636902.3743,-9.631809448,2.564073411,2.203670536
636912.1399,-9.324130477,2.604046738,2.202336923
636921.9055,-9.440691928,2.561693068,2.084653377
636931.6711,-9.364926302,2.519378164,1.968908221
636941.4368,-9.478931559,2.722136881,2.106844068
636951.2024,-9.441631349,2.679814225,1.990711234
636960.968,-9.556176874,2.641492405,2.074620269
636970.7336,-9.325025548,2.682256596,2.112829817
636980.4993,-9.440155692,2.44276554,2.138277004
636990.2649,-9.517263923,2.60239523,2.1197615
637000.0305,-9.440736278,2.601604367,2.08021834
637009.7961,-9.440066991,2.362942942,2.147147077
637019.5618,-9.439885557,2.563305808,2.16529041
637029.3274,-9.478528374,2.722943252,2.147162584
637039.093,-9.553935165,2.805975824,2.29879122
637048.8586,-9.478395323,2.603209354,2.160467695
637058.6243,-9.286023896,2.563336822,2.166841122
637068.3899,-9.477588953,2.604822095,2.241104727
637078.1555,-9.479201693,2.601596613,2.079830662
637087.9211,-9.557519481,2.758807192,1.94035961
637097.6868,-9.324356261,2.443595171,2.179758554
637107.4524,-9.323953075,2.444401541,2.22007707
637117.218,-9.286963318,2.68145798,2.072898979
637126.9836,-9.363805448,2.601619874,2.080993696
637136.7493,-9.403436068,2.55928171,1.964085506
637146.5149,-9.709949834,2.561638793,2.081939631
637156.2805,-9.48049995,2.679000101,1.95000504
637166.0461,-9.477992138,2.604015724,2.200786211
637175.8118,-9.439929908,2.603217107,2.160855373
637185.5774,-9.286874617,2.601635381,2.081769052
637195.343,-9.401331441,2.483490963,2.174548161
637205.1086,-9.441990184,2.639096555,1.954827755
637214.8743,-9.479560528,2.560878944,2.043947183
637224.6399,-9.285576361,2.524231893,2.211594675
637234.4055,-9.324578012,2.643151667,2.15758337
637244.1711,-9.477992138,2.604015724,2.200786211
637253.9368,-9.401867678,2.602418491,2.120924535
637263.7024,-9.479246044,2.641507913,2.075395625
637273.468,-9.479201693,2.601596613,2.079830662
637283.2336,-9.440377443,2.642322036,2.11610182
637292.9993,-9.172909679,2.798796027,1.939801354
637302.7649,-9.325340032,2.601627627,2.081381374
637312.5305,-9.402718398,2.640717049,2.035852465
637322.2961,-9.249171222,2.560119095,2.005954735
637332.0618,-9.363805448,2.601619874,2.080993696
637341.8274,-9.47973793,2.720524141,2.026207036
637351.593,-9.594194754,2.602379723,2.118986144
637361.3586,-9.440647577,2.521781768,2.089088414
637371.1243,-9.403569119,2.679015608,1.950780396
637380.8899,-9.478080839,2.683838323,2.191916137
637390.6555,-9.593658518,2.483452195,2.172609771
637400.4211,-9.632482768,2.442726772,2.136338614
637410.1868,-9.478754158,2.562491684,2.124584215
637419.9524,-9.481217619,2.597564762,1.878238081
637429.718,-9.402137812,2.481878223,2.093911129
637439.4836,-9.399807402,2.566539043,2.326952153
637449.2493,-9.324489312,2.563329069,2.166453444
637459.0149,-9.479516178,2.520967644,2.04838222
637468.7805,-9.481576454,2.556847092,1.842354601
637478.5461,-9.556132524,2.601581106,2.079055306
637488.3118,-9.556938894,2.599968365,1.998418274
637498.0774,-9.286874617,2.601635381,2.081769052
637507.843,-9.516143069,2.68463694,2.231846976
637517.6086,-9.400121886,2.485910074,2.29550371
637527.3743,-9.400254937,2.605643972,2.2821986
637537.1399,-9.593835919,2.643097392,2.154869624
637546.9055,-9.517086522,2.442750033,2.137501648
637556.6711,-9.287995472,2.519393672,1.969683577
637566.4368,-9.400883906,2.444386034,2.219301714
637576.2024,-9.479604879,2.600790243,2.039512146
637585.968,-9.401464493,2.603224861,2.161243051
637595.7336,-9.362595892,2.604038985,2.201949245
637605.4993,-9.519146798,2.478629481,1.931474029
637615.2649,-9.478754158,2.562491684,2.124584215
637625.0305,-9.400839556,2.404474735,2.223736751
637634.7961,-9.440377443,2.642322036,2.11610182
637644.5618,-9.555463236,2.362919681,2.145984043
637654.3274,-9.479649229,2.640701542,2.035077109
637664.093,-9.439885557,2.563305808,2.16529041
637673.8586,-9.326146403,2.600014887,2.000744342
637683.6243,-9.555551937,2.442742279,2.13711397
637693.3899,-9.441050763,2.520975398,2.048769898
637703.1555,-9.327670443,2.516966807,1.84834035
637712.9211,-9.364434417,2.440361936,2.018096811
637722.6868,-9.479068642,2.481862715,2.093135773
637732.4524,-9.365373838,2.558483093,1.924154668
637742.218,-9.479290394,2.681419212,2.070960589
637751.9836,-9.248546285,2.361368969,2.068448435
637761.7493,-9.325251332,2.521805029,2.090251448
637771.5149,-9.553850496,2.366145162,2.307258108
637781.2805,-9.480052414,2.639895172,1.994758593
637791.0461,-9.480096764,2.679806471,1.990323556
637800.8118,-9.363313562,2.522603646,2.130182286
637810.5774,-9.402226513,2.561700821,2.085041055
637820.343,-9.632615819,2.56246067,2.123033503
637830.1086,-9.478979942,2.402040117,2.102005846
637839.8743,-9.516235801,2.404451474,2.222573717
637849.6399,-9.401464493,2.603224861,2.161243051
637859.4055,-9.478262272,2.483475456,2.173772805
637869.1711,-9.555281803,2.563282548,2.164127375
637878.9368,-9.403032883,2.56008808,2.004404023
637888.7024,-9.477588953,2.604822095,2.241104727
637898.468,-9.401194359,2.723765129,2.188256457
637908.2336,-9.594061703,2.482645825,2.132291255
637917.9993,-9.211197693,2.639143076,1.957153823
637927.7649,-9.630870027,2.445952254,2.297612679
637937.5305,-9.363628046,2.441974677,2.098733844
637947.2961,-9.556088173,2.561669807,2.083490343
637957.0618,-9.516683337,2.443556403,2.177820164
637966.8274,-9.326102052,2.560103588,2.005179379
637976.593,-9.593747218,2.563274794,2.163739697
637986.3586,-9.325428733,2.681450226,2.072511301
637996.1243,-9.592311879,2.726145472,2.307273615
638005.8899,-9.479963713,2.560072573,2.003628666
638015.6555,-9.363761097,2.561708575,2.085428733
638025.4211,-9.286830267,2.561724082,2.086204089
638035.1868,-9.249618757,2.599224024,1.961201182
638044.9524,-9.365418188,2.598394393,1.919719631
638054.718,-9.286697216,2.441990184,2.0995092
638064.4836,-9.325428733,2.681450226,2.072511301
638074.2493,-9.324489312,2.563329069,2.166453444
638084.0149,-9.633067386,2.241557535,2.077876765
638093.7805,-9.479246044,2.641507913,2.075395625
638103.5461,-9.479024292,2.441951416,2.097570809
638113.3118,-9.324130477,2.604046738,2.202336923
638123.0774,-9.325565816,2.44117606,2.058803005
638132.843,-9.440466144,2.722144635,2.107231746
638142.6086,-9.479963713,2.560072573,2.003628666
638152.3743,-9.631450614,2.60479108,2.239554015
638162.1399,-9.517622758,2.56167756,2.083878021
638171.9055,-9.439300939,2.764475045,2.223752258
638181.6711,-9.555237453,2.523371248,2.168562412
638191.4368,-9.51860653,2.719710017,1.985500841
638201.2024,-9.402718398,2.640717049,2.035852465
638210.968,-9.287233452,2.560917711,2.045885573
638220.7336,-9.248856737,2.640748064,2.037403177
638230.4993,-9.325473084,2.721361525,2.068076264
638240.2649,-9.479068642,2.481862715,2.093135773
638250.0305,-9.402674048,2.60080575,2.040287502
638259.7961,-9.517667109,2.60158886,2.079442984
638269.5618,-9.439349321,2.444378281,2.218914036
638279.3274,-9.47973793,2.720524141,2.026207036
638289.093,-9.632256984,2.60317834,2.158916983
638298.8586,-9.51856218,2.679798718,1.989935878
638308.6243,-9.286560133,2.68226435,2.113217495
638318.3899,-9.481395021,2.757209959,1.860497934
638328.1555,-9.402807099,2.720539648,2.026982392
638337.9211,-9.402226513,2.561700821,2.085041055
638347.6868,-9.557027595,2.679790964,1.9895482
638357.4524,-9.480096764,2.679806471,1.990323556
638367.218,-9.287680987,2.60002264,2.00113202
638376.9836,-9.401597544,2.722958759,2.14793794
638386.7493,-9.402000729,2.722152388,2.107619424
638396.5149,-9.479068642,2.481862715,2.093135773
638406.2805,-9.401553193,2.68304746,2.152372977
638416.0461,-9.477544602,2.564910795,2.245539764
638425.8118,-9.516638986,2.403645104,2.182255201
638435.5774,-9.402674048,2.60080575,2.040287502
638445.343,-9.439841207,2.523394509,2.169725446
638455.1086,-9.441857133,2.519362657,1.968132865
638464.8743,-9.477141417,2.565717166,2.28585828
638474.6399,-9.480141115,2.71971777,1.985888519
638484.4055,-9.440780629,2.641515666,2.075783303
638494.1711,-9.286382731,2.522619153,2.130957642
638503.9368,-9.286515782,2.642353051,2.117652532
638513.7024,-9.439929908,2.603217107,2.160855373
638523.468,-9.402448264,2.761257317,2.062865871
638533.2336,-9.325069898,2.722167896,2.10839478
638542.9993,-9.478395323,2.603209354,2.160467695
638552.7649,-9.323953075,2.444401541,2.22007707
638562.5305,-9.209988137,2.641562187,2.078109372
638572.2961,-9.247066595,2.484328348,2.21641739
638582.0618,-9.592090127,2.526588976,2.329448799
638591.8274,-9.401375792,2.523402262,2.170113124
638601.593,-9.709010413,2.443517635,2.175881774
638611.3586,-9.401508843,2.64313616,2.156808014
638621.1243,-9.326190753,2.639926186,1.996309305
638630.8899,-9.401597544,2.722958759,2.14793794
638640.6555,-9.440288743,2.562499438,2.124971893
638650.4211,-9.439349321,2.444378281,2.218914036
638660.1868,-9.400702473,2.644748901,2.237445047
638669.9524,-9.480096764,2.679806471,1.990323556
638679.718,-9.286515782,2.642353051,2.117652532
638689.4836,-9.323457158,2.725393377,2.269668845
638699.2493,-9.325561784,2.801184124,2.05920619
638709.0149,-9.285527979,2.844328658,2.216432897
638718.7805,-9.3641159,2.880998969,2.049948439
638728.5461,-9.402315213,2.64152342,2.076170982
638738.3118,-9.439212238,2.684652447,2.232622332
638748.0774,-9.325025548,2.682256596,2.112829817
638757.843,-9.362640243,2.643950284,2.197514208
638767.6086,-9.324622363,2.683062967,2.153148333
638777.3743,-9.288172873,2.679038869,1.95194343
638787.1399,-9.28870911,2.797966396,1.898319803
638796.9055,-9.327041474,2.678224745,1.911237236
638806.6711,-9.441498298,2.560080327,2.004016345
638816.4368,-9.210121188,2.761296085,2.064804261
638826.2024,-9.402492615,2.801168617,2.058430834
638835.968,-9.403121584,2.639910679,1.995533949
638845.7336,-9.401150008,2.68385383,2.192691494
638855.4993,-9.133234708,2.801222892,2.061144581
638865.2649,-9.400432339,2.765289169,2.264458453
638875.0305,-9.248945438,2.720570662,2.028533104
638884.7961,-9.327085824,2.718136044,1.906802199
638894.5618,-9.402403914,2.721346018,2.067300908
638904.3274,-9.171700123,2.801215138,2.060756903
638914.093,-9.363176479,2.762877812,2.143890582
638923.8586,-9.326323804,2.759660084,1.983004195
638933.6243,-9.478439673,2.643120653,2.156032658
638943.3899,-9.324848147,2.522611399,2.130569964
638953.1555,-9.325428733,2.681450226,2.072511301
638962.9211,-9.363535314,2.722160142,2.108007102
638972.6868,-9.209584952,2.642368558,2.118427888
638982.4524,-9.478572725,2.762854551,2.142727548
638992.218,-9.324533662,2.603240368,2.162018407
639001.9836,-9.285483628,2.804417359,2.220867934
639011.7493,-9.671214285,2.682186814,2.109340715
639021.5149,-9.478439673,2.643120653,2.156032658
639031.2805,-9.324489312,2.563329069,2.166453444
639041.0461,-9.361519388,2.726191994,2.309599684
639050.8118,-9.477097067,2.525805866,2.290293317
639060.5774,-9.402045079,2.762063688,2.103184387
639070.343,-9.478125189,2.723749622,2.187481101
639080.1086,-9.36487792,2.839474929,1.973746443
639089.8743,-9.632212634,2.56326704,2.163352019
639099.6399,-9.323727292,2.604853109,2.24265544
639109.4055,-9.249171222,2.560119095,2.005954735
639119.1711,-9.517219573,2.562483931,2.124196537
639128.9368,-9.248497903,2.681465733,2.073286657
639138.7024,-9.592537663,2.565693905,2.284695246
639148.468,-9.516457553,2.604007971,2.200398533
639158.2336,-9.249304273,2.679852992,1.992649624
639167.9993,-9.440466144,2.722144635,2.107231746
639177.7649,-9.479693579,2.680612841,2.030642072
639187.5305,-9.479379095,2.76124181,2.062090515
639197.2961,-9.555818039,2.682210075,2.110503749
639207.0618,-9.440200042,2.482676839,2.133841967
639216.8274,-9.287858389,2.759667837,1.983391873
639226.593,-9.325654517,2.520998659,2.049932932
639236.3586,-9.365865724,2.637499322,1.874966078
639246.1243,-9.286604483,2.722175649,2.108782458
639255.8899,-9.439974258,2.643128407,2.156420336
639265.6555,-9.364656168,2.639918433,1.995921627
639275.4211,-9.249038171,2.440385197,2.019259845
639285.1868,-9.363982849,2.761265071,2.063253549
639294.9524,-9.402585347,2.520983152,2.049157576
639304.718,-9.401464493,2.603224861,2.161243051
639314.4836,-9.249530057,2.519401425,1.970071255
639324.2493,-9.208734231,2.604069999,2.203499957
639334.0149,-9.441945834,2.599185256,1.959262791
639343.7805,-9.517485675,2.801951726,2.097586317
639353.5461,-9.364297334,2.680636102,2.031805106
639363.3118,-9.170672001,2.603271382,2.163569119
639373.0774,-9.401690276,2.442773294,2.138664682
639382.843,-9.479693579,2.680612841,2.030642072
639392.6086,-9.481036186,2.797927628,1.896381413
639402.3743,-9.519683034,2.597557008,1.877850403
639412.1399,-9.324578012,2.643151667,2.15758337
639421.9055,-9.285753762,2.683877091,2.193854528
639431.6711,-9.403927954,2.638297938,1.914896916
639441.4368,-9.288172873,2.679038869,1.95194343
639451.2024,-9.441228164,2.680620595,2.03102975
639460.968,-9.32753336,2.757240973,1.862048646
639470.7336,-9.44091368,2.761249564,2.062478193
639480.4993,-9.364700519,2.679829732,1.99148659
639490.2649,-9.325743218,2.600821257,2.041062858
639500.0305,-9.44172005,2.759636823,1.981841161
639509.7961,-9.480052414,2.639895172,1.994758593
639519.5618,-9.439885557,2.563305808,2.16529041
639529.3274,-9.439438022,2.524200879,2.210043963
639539.093,-9.555999473,2.481847208,2.092360417
639548.8586,-9.477411551,2.445176897,2.258844875
639558.6243,-9.285532011,2.484320594,2.216029712
639568.3899,-9.593299683,2.524169865,2.208493251
639578.1555,-9.248945438,2.720570662,2.028533104
639587.9211,-9.671798904,2.481017577,2.050878866
639597.6868,-9.401194359,2.723765129,2.188256457
639607.4524,-9.516457553,2.604007971,2.200398533
639617.218,-9.325295682,2.561716328,2.085816411
639626.9836,-9.249392974,2.759675591,1.983779551
639636.7493,-9.55666876,2.720508634,2.025431679
639646.5149,-9.364519085,2.880192598,2.009629923
639656.2805,-9.440736278,2.601604367,2.08021834
639666.0461,-9.516860738,2.6032016,2.160080017
639675.8118,-9.362462841,2.484305087,2.215254356
639685.5774,-9.477318819,2.725362363,2.268118133
639695.343,-9.362773294,2.763684182,2.184209098
639705.1086,-9.326235103,2.679837485,1.991874268
639714.8743,-9.402359564,2.681434719,2.071735945
639724.6399,-9.556132524,2.601581106,2.079055306
639734.4055,-9.248901088,2.680659363,2.032968141
639744.1711,-9.326057702,2.520192288,2.009614415
639753.9368,-9.440288743,2.562499438,2.124971893
639763.7024,-9.44091368,2.761249564,2.062478193
639773.468,-9.440736278,2.601604367,2.08021834
639783.2336,-9.325428733,2.681450226,2.072511301
639792.9993,-9.286156948,2.68307072,2.153536011
639802.7649,-9.362684593,2.683861583,2.193079172
639812.5305,-9.324711064,2.762885565,2.14427826
639822.2961,-9.517755809,2.681411458,2.070572911
639832.0618,-9.516324502,2.484274073,2.213703643
639841.8274,-9.47973793,2.720524141,2.026207036
639851.593,-9.438051065,2.366974793,2.348739659
639861.3586,-9.48058865,2.758822699,1.941134966
639871.1243,-9.479693579,2.680612841,2.030642072
639880.8899,-9.477633303,2.644733394,2.236669691
639890.6555,-9.248006017,2.602449505,2.122475247
639900.4211,-9.402182162,2.521789522,2.089476092
639910.1868,-9.554789917,2.484266319,2.213315965
639919.9524,-9.479560528,2.560878944,2.043947183
639929.718,-9.248276151,2.481909237,2.095461841
639939.4836,-9.363313562,2.522603646,2.130182286
639949.2493,-9.363043428,2.643143914,2.157195692
639959.0149,-9.323860343,2.724587007,2.229350329
639968.7805,-9.478887209,2.682225582,2.111279105
639978.5461,-9.672649624,2.519316136,1.965806797
639988.3118,-9.400928256,2.484297334,2.214866678
639998.0774,-9.249618757,2.599224024,1.961201182
640007.843,-9.439300939,2.764475045,2.223752258
640017.6086,-9.478798508,2.602402984,2.120149179
640027.3743,-9.247199646,2.604062246,2.203112279
640037.1399,-9.361700821,2.525829127,2.291456351
640046.9055,-9.172732277,2.63915083,1.957541501
640056.6711,-9.400343638,2.685466571,2.273328526
640066.4368,-9.517352624,2.682217829,2.110891427
640076.2024,-9.555999473,2.481847208,2.092360417
640085.968,-9.363357912,2.562514945,2.125747249
640095.7336,-9.323638591,2.52503051,2.251525513
640105.4993,-9.326146403,2.600014887,2.000744342
640115.2649,-9.324803796,2.4827001,2.135005001
640125.0305,-9.170986486,2.522642414,2.132120676
640134.7961,-9.440869329,2.721338265,2.06691323
640144.5618,-9.787642685,2.520099246,2.004962279
640154.3274,-9.364208633,2.600813504,2.04067518
640164.093,-9.439929908,2.603217107,2.160855373
640173.8586,-9.440377443,2.642322036,2.11610182
640183.6243,-9.556176874,2.641492405,2.074620269
640193.3899,-9.442260318,2.518556287,1.927814349
640203.1555,-9.401508843,2.64313616,2.156808014
640212.9211,-9.439885557,2.563305808,2.16529041
640222.6868,-9.401464493,2.603224861,2.161243051
640232.4524,-9.554878618,2.564088918,2.204445892
640242.218,-9.287277802,2.600829011,2.041450536
640251.9836,-9.400387988,2.72537787,2.268893489
640261.7493,-9.478350973,2.563298055,2.164902732
640271.5149,-9.247199646,2.604062246,2.203112279
640281.2805,-9.440691928,2.561693068,2.084653377
640291.0461,-9.364656168,2.639918433,1.995921627
640300.8118,-9.326190753,2.639926186,1.996309305
640310.5774,-9.365015003,2.599200763,1.960038148
640320.343,-9.325295682,2.561716328,2.085816411
640330.1086,-9.325025548,2.682256596,2.112829817
640339.8743,-9.248723686,2.521014166,2.050708288
640349.6399,-9.439482372,2.564112179,2.205608926
640359.4055,-9.403032883,2.56008808,2.004404023
640369.1711,-9.439885557,2.563305808,2.16529041
640378.9368,-9.518247695,2.760427686,2.021384321
640388.7024,-9.479560528,2.560878944,2.043947183
640398.468,-9.286918968,2.64154668,2.077334016
640408.2336,-9.247243997,2.643973545,2.198677243
640417.9993,-9.518158995,2.680605088,2.030254394
640427.7649,-9.401867678,2.602418491,2.120924535
640437.5305,-9.479649229,2.640701542,2.035077109
640447.2961,-9.363805448,2.601619874,2.080993696
640457.0618,-9.363761097,2.561708575,2.085428733
640466.8274,-9.517219573,2.562483931,2.124196537
640476.593,-9.477455902,2.485088197,2.254409838
640486.3586,-9.48058865,2.758822699,1.941134966
640496.1243,-9.594106053,2.522557124,2.127856218
640505.8899,-9.632079583,2.443533143,2.17665713
640515.6555,-9.403121584,2.639910679,1.995533949
640525.4211,-9.400658122,2.604837602,2.241880083
640535.1868,-9.516905089,2.6431129,2.15564498
640544.9524,-9.403077233,2.59999938,1.999968986
640554.718,-9.325295682,2.561716328,2.085816411
640564.4836,-9.401420142,2.563313562,2.165678088
640574.2493,-9.325521466,2.401264761,2.063238042
640584.0149,-9.362192707,2.604845355,2.242267761
640593.7805,-9.286471432,2.602441751,2.122087569
640603.5461,-9.708337094,2.564864274,2.243213696
640613.3118,-9.554745567,2.44435502,2.217751002
640623.0774,-9.441453948,2.520169028,2.008451381
640632.843,-9.479201693,2.601596613,2.079830662
640642.6086,-9.363672397,2.481885976,2.094298807
640652.3743,-9.401956378,2.682241089,2.112054461
640662.1399,-9.402718398,2.640717049,2.035852465
640671.9055,-9.288531708,2.638321199,1.916059951
640681.6711,-9.363087778,2.683055213,2.152760655
640691.4368,-9.402762749,2.680628349,2.031417428
640701.2024,-9.403121584,2.639910679,1.995533949
640710.968,-9.247288347,2.683884844,2.194242206
640720.7336,-9.364297334,2.680636102,2.031805106
640730.4993,-9.173357214,2.837900956,1.895047801
640740.2649,-9.477903437,2.524193126,2.209656285
640750.0305,-9.326057702,2.520192288,2.009614415
640759.7961,-9.480637033,2.438725935,1.936296744
640769.5618,-9.36161212,2.446006528,2.300326425
640779.3274,-9.249348623,2.719764292,1.988214588
640789.093,-9.441095113,2.560886697,2.044334861
640798.8586,-9.4805443,2.7189114,1.945570003
640808.6243,-9.401823327,2.562507191,2.125359571
640818.3899,-9.209988137,2.641562187,2.078109372
640828.1555,-9.402807099,2.720539648,2.026982392
640837.9211,-9.441050763,2.520975398,2.048769898
640847.6868,-9.480052414,2.639895172,1.994758593
640857.4524,-9.478306622,2.523386755,2.169337768
640867.218,-9.478665457,2.482669086,2.133454289
640876.9836,-9.363087778,2.683055213,2.152760655
640886.7493,-9.401016957,2.564119932,2.205996604
640896.5149,-9.555729339,2.602387476,2.119373822
640906.2805,-9.401420142,2.563313562,2.165678088
640916.0461,-9.478217922,2.443564157,2.178207842
640925.8118,-9.28468129,2.446022036,2.301101781
640935.5774,-9.400879874,2.804394098,2.219704899
640945.343,-9.552685291,2.408475572,2.42377862
640955.1086,-9.556983245,2.639879665,1.993983237
640964.8743,-9.594912424,2.520944384,2.047219185
640974.6399,-9.325340032,2.601627627,2.081381374
640984.4055,-9.594239104,2.642291022,2.114551108
640994.1711,-9.325565816,2.44117606,2.058803005
641003.9368,-9.402403914,2.721346018,2.067300908
641013.7024,-9.631450614,2.60479108,2.239554015
641023.468,-9.555773689,2.642298776,2.114938786
641033.2336,-9.363805448,2.601619874,2.080993696
641042.9993,-9.595674443,2.479420344,1.97101719
641052.7649,-9.555596288,2.482653579,2.132678933
641062.5305,-9.518114644,2.640693789,2.034689431
641072.2961,-9.47804052,2.28391896,2.195947989
641082.0618,-9.362507191,2.524216386,2.210819319
641091.8274,-9.479649229,2.640701542,2.035077109
641101.593,-9.478665457,2.482669086,2.133454289
641111.3586,-9.555729339,2.602387476,2.119373822
641121.1243,-9.478665457,2.482669086,2.133454289
641130.8899,-9.517981593,2.520959891,2.047994541
641140.6555,-9.478887209,2.682225582,2.111279105
641150.4211,-9.556088173,2.561669807,2.083490343
641160.1868,-9.480096764,2.679806471,1.990323556
641169.9524,-9.364744869,2.719741031,1.987051553
641179.718,-9.403077233,2.59999938,1.999968986
641189.4836,-9.44091368,2.761249564,2.062478193
641199.2493,-9.402315213,2.64152342,2.076170982
641209.0149,-9.325473084,2.721361525,2.068076264
641218.7805,-9.480903135,2.67819373,1.909686524
641228.5461,-9.402585347,2.520983152,2.049157576
641238.3118,-9.248453552,2.641554434,2.077721694
641248.0774,-9.288930861,2.997522892,1.876144619
641257.843,-9.323235406,2.525836881,2.291844029
641267.6086,-9.403165934,2.679821978,1.991098912
641277.3743,-9.442885255,2.717306413,1.865320649
641287.1399,-9.479649229,2.640701542,2.035077109
641296.9055,-9.479649229,2.640701542,2.035077109
641306.6711,-9.363982849,2.761265071,2.063253549
641316.4368,-9.249215572,2.600030394,2.001519698
641326.2024,-9.286963318,2.68145798,2.072898979
641335.968,-9.5931626,2.764444031,2.222201546
641345.7336,-9.440780629,2.641515666,2.075783303
641355.4993,-9.402762749,2.680628349,2.031417428
641365.2649,-9.325876269,2.720555155,2.027757748
641375.0305,-9.480096764,2.679806471,1.990323556
641384.7961,-9.362414459,2.804401852,2.220092578
641394.5618,-9.440333093,2.602410737,2.120536857
641404.3274,-9.47897591,2.762048181,2.102409031
641414.093,-9.247602832,2.603255875,2.162793763
641423.8586,-9.248586603,2.761288332,2.064416583
641433.6243,-9.479560528,2.560878944,2.043947183
641443.3899,-9.363087778,2.683055213,2.152760655
641453.1555,-9.479604879,2.600790243,2.039512146
641462.9211,-9.248006017,2.602449505,2.122475247
641472.6868,-9.476649531,2.486700937,2.33504687
641482.4524,-9.209540602,2.602457258,2.122862925
641492.218,-9.478080839,2.683838323,2.191916137
641501.9836,-9.401774945,2.882603956,2.130197793
641511.7493,-9.363176479,2.762877812,2.143890582
641521.5149,-9.325743218,2.600821257,2.041062858
641531.2805,-9.247647182,2.643167175,2.158358726
641541.0461,-9.248812387,2.600836764,2.041838214
641550.8118,-9.362551542,2.564127686,2.206384282
641560.5774,-9.363849798,2.641531173,2.07655866
641570.343,-9.595674443,2.479420344,1.97101719
641580.1086,-9.324711064,2.762885565,2.14427826
641589.8743,-9.516413203,2.564096671,2.20483357
641599.6399,-9.401641894,2.762870058,2.143502904
641609.4055,-9.324622363,2.683062967,2.153148333
641619.1711,-9.323727292,2.604853109,2.24265544
641628.9368,-9.327130175,2.758047343,1.902367162
641638.7024,-9.554652834,2.724540485,2.227024261
641648.468,-9.555773689,2.642298776,2.114938786
641658.2336,-9.479379095,2.76124181,2.062090515
641667.9993,-9.479467796,2.841064409,2.053220441
641677.7649,-9.324174827,2.643958038,2.197901886
641687.5305,-9.285753762,2.683877091,2.193854528
641697.2961,-9.402226513,2.561700821,2.085041055
641707.0618,-9.324848147,2.522611399,2.130569964
641716.8274,-9.593344033,2.564081164,2.204058214
641726.593,-9.593747218,2.563274794,2.163739697
641736.3586,-9.403927954,2.638297938,1.914896916
641746.1243,-9.402315213,2.64152342,2.076170982
641755.8899,-9.556265575,2.721315004,2.065750196
641765.6555,-9.48130632,2.67738736,1.869368007
641775.4211,-9.364656168,2.639918433,1.995921627
641785.1868,-9.401956378,2.682241089,2.112054461
641794.9524,-9.324981198,2.642345297,2.117264854
641804.718,-9.361833872,2.645563025,2.278151241
641814.4836,-9.402315213,2.64152342,2.076170982
641824.2493,-9.364611818,2.600007133,2.000356664
641834.0149,-9.210524373,2.760489715,2.024485745
641843.7805,-9.517441325,2.762040427,2.102021353
641853.5461,-9.362684593,2.683861583,2.193079172
641863.3118,-9.479201693,2.601596613,2.079830662
641873.0774,-9.364252983,2.640724803,2.036240143
641882.843,-9.633736674,2.480218961,2.010948028
641892.6086,-9.325114249,2.762079195,2.103959744
641902.3743,-9.441272514,2.720531894,2.026594714
641912.1399,-9.286515782,2.642353051,2.117652532
641921.9055,-9.249663108,2.639135323,1.956766145
641931.6711,-9.364252983,2.640724803,2.036240143
641941.4368,-9.325787568,2.640732556,2.036627821
641951.2024,-9.439123537,2.604829848,2.241492405
641960.968,-9.442393369,2.638290185,1.914509238
641970.7336,-9.59549301,2.67978321,1.989160522
641980.4993,-9.63355524,2.680581827,2.02909136
641990.2649,-9.555148752,2.44354865,2.177432486
642000.061,-9.479919363,2.520161274,2.008063703
642009.7961,-9.555729339,2.602387476,2.119373822
642019.5618,-9.285306227,2.644772162,2.238608081
642029.3274,-9.248768037,2.560925465,2.046273251
642039.093,-9.400077536,2.445998775,2.299938747
642048.8586,-9.671125584,2.602364216,2.118210788
642058.6243,-9.324578012,2.643151667,2.15758337
642068.3899,-9.592582013,2.605605204,2.28026021
642078.1555,-9.210750157,2.600038148,2.001907376
642087.9211,-9.556447008,2.520952137,2.047606863
642097.6868,-9.325428733,2.681450226,2.072511301
642107.4524,-9.402629698,2.560894451,2.044722539
642117.218,-9.285665062,2.604054492,2.202724601
642126.9836,-9.325517434,2.761272825,2.063641227
642136.7493,-9.671798904,2.481017577,2.050878866
642146.5149,-9.480411249,2.599177502,1.958875113
642156.2805,-9.518025943,2.56087119,2.043559505
642166.0461,-9.286785916,2.521812783,2.090639126
642175.8118,-9.400480721,2.445192405,2.259620231
642185.5774,-9.326593938,2.639119816,1.955990789
642195.343,-9.477411551,2.445176897,2.258844875
642205.1086,-9.479334744,2.721330511,2.066525552
642214.8743,-9.518787963,2.51934715,1.967357509
642224.6399,-9.168164189,2.528287006,2.41435029
642234.4055,-9.286471432,2.602441751,2.122087569
642244.1711,-9.324489312,2.563329069,2.166453444
642253.9368,-9.365506889,2.678216991,1.910849558
642263.7024,-9.479201693,2.601596613,2.079830662
642273.468,-9.326235103,2.679837485,1.991874268
642283.2336,-9.247647182,2.643167175,2.158358726
642292.9993,-9.324892497,2.562522699,2.126134927
642302.7649,-9.556850193,2.520145767,2.007288347
642312.5305,-9.402585347,2.520983152,2.049157576
642322.2961,-9.595134175,2.72050088,2.025044001
642332.0618,-9.441316865,2.760443194,2.022159677
642341.8274,-9.325295682,2.561716328,2.085816411
642351.593,-9.555818039,2.682210075,2.110503749
642361.3586,-9.402359564,2.681434719,2.071735945
642371.1243,-9.442260318,2.518556287,1.927814349
642380.8899,-9.364075582,2.481079606,2.05398029
642390.6555,-9.174030534,2.716554318,1.827715879
642400.4211,-9.479471827,2.481056345,2.052817256
642410.1868,-9.402137812,2.481878223,2.093911129
642419.9524,-9.287592287,2.520200042,2.010002093
642429.718,-9.401375792,2.523402262,2.170113124
642439.4836,-9.476826933,2.646346134,2.317306723
642449.2493,-9.248812387,2.600836764,2.041838214
642459.0149,-9.440466144,2.722144635,2.107231746
642468.7805,-9.287951122,2.479482372,1.974118614
642478.5461,-9.478931559,2.722136881,2.106844068
642488.3118,-9.324803796,2.4827001,2.135005001
642498.0774,-9.363805448,2.601619874,2.080993696
642507.843,-9.363761097,2.561708575,2.085428733
642517.6086,-9.477947788,2.564104425,2.205221248
642527.3743,-9.554878618,2.564088918,2.204445892
642537.1399,-9.439079187,2.564918549,2.245927442
642546.9055,-9.593791569,2.603186093,2.159304661
642556.6711,-9.478306622,2.523386755,2.169337768
642566.4368,-9.439704124,2.763668675,2.183433742
642576.2024,-9.594239104,2.642291022,2.114551108
642585.968,-9.479246044,2.641507913,2.075395625
642595.7336,-9.403839253,2.55847534,1.92376699
642605.4993,-9.518429129,2.56006482,2.003240988
642615.2649,-9.479334744,2.721330511,2.066525552
642625.0305,-9.479112993,2.521774015,2.088700736
642634.7961,-9.325831918,2.680643856,2.032192785
642644.5618,-9.401734627,2.482684593,2.134229645
642654.3274,-9.363982849,2.761265071,2.063253549
642664.093,-9.249618757,2.599224024,1.961201182
642673.8586,-9.326549588,2.599208517,1.960425826
642683.6243,-9.209451901,2.52263466,2.131732998
642693.3899,-9.517263923,2.60239523,2.1197615
642703.1555,-9.289023594,2.717337427,1.866871361
642712.9211,-9.286112597,2.643159421,2.157971048
642722.6868,-9.401194359,2.723765129,2.188256457
642732.4524,-9.402359564,2.681434719,2.071735945
642742.218,-9.402270863,2.60161212,2.080606018
642751.9836,-9.478306622,2.523386755,2.169337768
642761.7493,-9.480455599,2.639088802,1.954440077
642771.5149,-9.440510494,2.762055934,2.102796709
642781.2805,-9.556535709,2.600774736,2.03873679
642791.0461,-9.401105658,2.643942531,2.19712653
642800.8118,-9.632079583,2.443533143,2.17665713
642810.5774,-9.477500252,2.524999496,2.249974801
642820.343,-9.476383429,2.247233142,2.361657091
642830.1086,-9.441095113,2.560886697,2.044334861
642839.8743,-9.440111341,2.402854241,2.142712041
642849.6399,-9.440244392,2.522588139,2.12940693
642859.4055,-9.324936847,2.602433998,2.121699891
642869.1711,-9.516594636,2.363733805,2.186690237
642878.9368,-9.285753762,2.683877091,2.193854528
642888.7024,-9.516905089,2.6431129,2.15564498
642898.468,-9.439796857,2.48348321,2.174160483
642908.2336,-9.288039822,2.559304971,1.96524854
642917.9993,-9.363805448,2.601619874,2.080993696
642927.7649,-9.325251332,2.521805029,2.090251448
642937.5305,-9.439974258,2.643128407,2.156420336
642947.2961,-9.479919363,2.520161274,2.008063703
642957.0618,-9.478350973,2.563298055,2.164902732
642966.8274,-9.323638591,2.52503051,2.251525513
642976.593,-9.556761493,2.440323168,2.016158421
642986.3586,-9.210750157,2.600038148,2.001907376
642996.1243,-9.47973793,2.720524141,2.026207036
643005.8899,-9.515965667,2.524991742,2.249587123
643015.6555,-9.326102052,2.560103588,2.005179379
643025.4211,-9.554967319,2.643911516,2.195575818
643035.1868,-9.324848147,2.522611399,2.130569964
643044.9524,-9.364970653,2.559289464,1.964473184
643054.718,-9.32502958,2.322248533,2.112426632
643064.4836,-9.363986881,2.401257007,2.062850364
643074.2493,-9.439482372,2.564112179,2.205608926
643084.0149,-9.748818435,2.560824669,2.041233436
643093.7805,-9.554789917,2.484266319,2.213315965
643103.5461,-9.401778977,2.522595892,2.129794608
643113.3118,-9.478350973,2.563298055,2.164902732
643123.0774,-9.285665062,2.604054492,2.202724601
643132.843,-9.400525071,2.485103704,2.255185194
643142.6086,-9.439526723,2.604023478,2.201173889
643152.3743,-9.555596288,2.482653579,2.132678933
643162.1399,-9.555370504,2.643105146,2.155257302
643171.9055,-9.287052019,2.761280578,2.064028905
643181.6711,-9.556043823,2.521758508,2.08792538
643191.4368,-9.325831918,2.680643856,2.032192785
643201.2024,-9.477814736,2.444370527,2.218526358
643210.968,-9.401464493,2.603224861,2.161243051
643220.7336,-9.325251332,2.521805029,2.090251448
643230.4993,-9.363224861,2.442781047,2.13905236
643240.2649,-9.439079187,2.564918549,2.245927442
643250.0305,-9.325340032,2.601627627,2.081381374
643259.7961,-9.670500647,2.40361409,2.180704489
643269.5618,-9.363761097,2.561708575,2.085428733
643279.3274,-9.517622758,2.56167756,2.083878021
643289.093,-9.475931862,2.568136277,2.406813829
643298.8586,-9.438809053,2.685458817,2.272940848
643308.6243,-9.401375792,2.523402262,2.170113124
643318.3899,-9.323638591,2.52503051,2.251525513
643328.1555,-9.324936847,2.602433998,2.121699891
643337.9211,-9.401287091,2.443579664,2.178983198
643347.6868,-9.440421794,2.682233336,2.111666783
643357.4524,-9.515876966,2.445169144,2.258457196
643367.218,-9.247828615,2.442804308,2.140215394
643376.9836,-9.286785916,2.521812783,2.090639126
643386.7493,-9.286338381,2.482707854,2.135392679
643396.5149,-9.479157343,2.561685314,2.084265699
643406.2805,-9.479649229,2.640701542,2.035077109
643416.0461,-9.440603227,2.481870469,2.093523451
643425.8118,-9.400210587,2.565732673,2.286633636
643435.5774,-9.362866026,2.483498717,2.174935839
643445.343,-9.479201693,2.601596613,2.079830662
643455.1086,-9.402718398,2.640717049,2.035852465
643464.8743,-9.555999473,2.481847208,2.092360417
643474.6399,-9.47808487,2.323830259,2.191512952
643484.4055,-9.249751809,2.718957921,1.947896071
643494.1711,-9.517667109,2.60158886,2.079442984
643503.9368,-9.439974258,2.643128407,2.156420336
643513.7024,-9.479157343,2.561685314,2.084265699
643523.468,-9.439841207,2.523394509,2.169725446
643533.2336,-9.556535709,2.600774736,2.03873679
643542.9993,-9.440333093,2.602410737,2.120536857
643552.7649,-9.518247695,2.760427686,2.021384321
643562.5305,-9.479201693,2.601596613,2.079830662
643572.2961,-9.400613772,2.564926302,2.24631512
643582.0618,-9.245409504,2.44764253,2.382126492
643591.8274,-9.401375792,2.523402262,2.170113124
643601.593,-9.516143069,2.68463694,2.231846976
643611.3586,-9.400835524,2.764482799,2.224139936
643621.1243,-9.477947788,2.564104425,2.205221248
643630.8899,-9.211064641,2.519409179,1.970458933
643640.6555,-9.325876269,2.720555155,2.027757748
643650.4211,-9.401823327,2.562507191,2.125359571
643660.1868,-9.517755809,2.681411458,2.070572911
643669.9524,-9.171478371,2.601658642,2.082932087
643679.718,-9.326190753,2.639926186,1.996309305
643689.4836,-9.326952773,2.598402146,1.920107309
643699.2493,-9.439615423,2.683846076,2.192303816
643709.0149,-9.24666341,2.485134718,2.256735906
643718.7805,-9.478709807,2.522580385,2.129019252
643728.5461,-9.401420142,2.563313562,2.165678088
643738.3118,-9.478350973,2.563298055,2.164902732
643748.0774,-9.364164282,2.560902204,2.045110217
643757.843,-9.671440069,2.521735247,2.086762346
643767.6086,-9.288084173,2.59921627,1.960813504
643777.3743,-9.672246439,2.520122506,2.006125313
643787.1399,-9.324936847,2.602433998,2.121699891
643796.9055,-9.209673653,2.722191156,2.109557814
643806.6711,-9.477411551,2.445176897,2.258844875
643816.4368,-9.403347367,2.479459112,1.97295558
643826.2024,-9.479024292,2.441951416,2.097570809
643835.968,-9.400525071,2.485103704,2.255185194
643845.7336,-9.322832221,2.526643251,2.332162546
643855.4993,-9.479875013,2.480249975,2.01249874
643865.2649,-9.363938499,2.721353772,2.067688586
643875.0305,-9.517892892,2.441137292,2.056864615
643884.7961,-9.363672397,2.481885976,2.094298807
643894.5618,-9.364970653,2.559289464,1.964473184
643904.3274,-9.286560133,2.68226435,2.113217495
643914.093,-9.286874617,2.601635381,2.081769052
643923.8586,-9.209496251,2.562545959,2.127297962
643933.6243,-9.402585347,2.520983152,2.049157576
643943.3899,-9.440647577,2.521781768,2.089088414
643953.1555,-9.440288743,2.562499438,2.124971893
643962.9211,-9.479157343,2.561685314,2.084265699
643972.6868,-9.401912028,2.64232979,2.116489498
643982.4524,-9.479112993,2.521774015,2.088700736
643992.218,-9.401912028,2.64232979,2.116489498
644001.9836,-9.518114644,2.640693789,2.034689431
644011.7493,-9.402585347,2.520983152,2.049157576
644021.5149,-9.402762749,2.680628349,2.031417428
644031.2805,-9.402988532,2.520176781,2.008839059
644041.0461,-9.402226513,2.561700821,2.085041055
644050.8118,-9.249707458,2.679046622,1.952331108
644060.5774,-9.402452296,2.401249254,2.062462686
644070.343,-9.514889163,2.647144751,2.357237561
644080.1086,-9.516590604,2.723741868,2.187093423
644089.8743,-9.478665457,2.482669086,2.133454289
644099.6399,-9.439796857,2.48348321,2.174160483
644109.4055,-9.365236755,2.798757259,1.937862964
644119.1711,-9.324666713,2.722974266,2.148713297
644128.9368,-9.325114249,2.762079195,2.103959744
644138.7024,-9.402718398,2.640717049,2.035852465
644148.468,-9.440333093,2.602410737,2.120536857
644158.2336,-9.401778977,2.522595892,2.129794608
644167.9993,-9.516457553,2.604007971,2.200398533
644177.7649,-9.440107309,2.762862305,2.143115226
644187.5305,-9.365103704,2.679023361,1.951168074
644197.2961,-9.440510494,2.762055934,2.102796709
644207.0618,-9.402000729,2.722152388,2.107619424
644216.8274,-9.400972607,2.524208633,2.210431641
644226.593,-9.248586603,2.761288332,2.064416583
644236.3586,-9.211286393,2.718965675,1.948283749
644246.1243,-9.441183814,2.640709296,2.035464787
644255.8899,-9.402093461,2.441966923,2.098346165
644265.6555,-9.442078885,2.718919154,1.945957681
644275.4211,-9.47973793,2.720524141,2.026207036
644285.1868,-9.480318516,2.879362967,1.968148372
644294.9524,-9.556221225,2.681403705,2.070185233
644304.718,-9.401420142,2.563313562,2.165678088
644314.4836,-9.441990184,2.639096555,1.954827755
644324.2493,-9.554519783,2.604806587,2.240329371
644334.0149,-9.594372155,2.76202492,2.101245997
644343.7805,-9.288350275,2.838684066,1.934203283
644353.5461,-9.287277802,2.600829011,2.041450536
644363.3118,-9.441857133,2.519362657,1.968132865
644373.0774,-9.362237057,2.644756654,2.237832725
644382.843,-9.478439673,2.643120653,2.156032658
644392.6086,-9.172417793,2.719779799,1.988989944
644402.3743,-9.326505238,2.559297217,1.964860862
644412.1399,-9.402270863,2.60161212,2.080606018
644421.9055,-9.286874617,2.601635381,2.081769052
644431.6711,-9.551967621,2.489910912,2.495545579
