Timestamp,Accelerometer X,Accelerometer Y,Accelerometer Z
mSecs,m/(sec^2),m/(sec^2),m/(sec^2)
1697302.765,-10.8452045,0.998821769,3.941088445
1697312.531,-10.2703279,1.074728819,3.736440961
1697322.296,-10.19482837,1.271881712,3.594085584
1697332.062,-10.00071116,1.115500764,3.775038186
1697341.827,-9.925659169,1.351758585,3.587929257
1697351.593,-10.04047483,1.192896498,3.644824886
1697361.359,-9.696031883,1.309474696,3.473734813
1697371.124,-9.544948167,1.263949819,3.197490948
1697380.89,-9.621520163,1.304651981,3.232599071
1697390.656,-9.469226892,1.261546215,3.077310755
1697400.421,-9.622507967,1.102676374,3.133818706
1697410.187,-9.39288068,1.060392485,3.019624262
1697419.952,-9.355935273,1.337360223,2.868011134
1697429.718,-9.433495073,1.176086778,2.804338893
1697439.484,-9.432688702,1.177699519,2.884975925
1697449.249,-9.318054477,1.136198739,2.809936964
1697459.015,-9.471379901,1.017240198,2.862009878
1697468.781,-9.395924728,1.254304389,2.715219465
1697478.546,-9.397807603,1.13053864,2.526931994
1697488.312,-9.469992944,0.860014111,3.000705574
1697498.077,-9.472274972,1.095450055,2.772502772
1697507.843,-9.626628519,1.174435269,2.72176347
1697517.609,-9.664065812,0.97648376,2.824188008
1697527.374,-9.703244865,1.255048731,2.752436556
1697537.14,-9.778833089,1.137718437,2.88592186
1697546.906,-9.93426314,1.094550642,2.727532119
1697556.671,-9.972861607,1.214276787,2.713839331
1697566.437,-9.972147969,0.935704062,2.785203105
1697576.202,-10.01096819,1.254986703,2.749335132
1697585.968,-10.39535624,1.015441371,2.772068572
1697595.734,-10.28152435,1.332335915,2.616795763
1697605.499,-10.55114109,1.291563971,2.578198538
1697615.265,-10.62780179,1.412088732,2.604436588
1697625.031,-10.78211098,1.451162646,2.558132322
1697634.796,-10.5137925,1.569338079,2.466903926
1697644.562,-10.70629698,1.728944508,2.447225388
1697654.327,-10.63044265,1.606807006,2.340350306
1697664.093,-10.40077101,1.524611818,2.230590899
1697673.859,-10.785784,1.483816613,2.190830639
1697683.624,-11.86531538,2.278600017,1.930000853
1697693.39,-14.32763012,3.117047444,1.852372202
1697703.156,-11.17630047,2.032014453,1.600722632
1697712.921,-11.02297907,1.790964931,1.548246532
1697722.687,-11.56521225,1.863421646,1.17108232
1697732.452,-10.83790933,1.776489033,0.824451629
1697742.218,-11.57148581,1.690874524,0.543726206
1697751.984,-11.34410427,1.124099153,0.204957627
1697761.749,-10.26985865,0.358744233,-0.062788336
1697771.515,-9.578384313,-0.282922472,-0.146123607
1697781.281,-9.428784319,-0.811414792,-0.570739612
1697791.046,-9.200822188,-1.537028991,-0.851449528
1697800.812,-8.663794127,-2.379895947,-0.994797361
1697810.577,-8.089373125,-2.984900095,-1.245004768
1697820.343,-8.128693292,-3.306617354,-1.330867701
1697830.109,-9.207023175,-3.229430966,-1.471548309
1697839.874,-9.708101696,-3.031588007,-1.57940034
1697849.64,-10.09445729,-2.955068425,-1.753421259
1697859.406,-9.746925946,-3.07231343,-1.615671497
1697869.171,-9.66882991,-3.029967513,-1.498375629
1697878.937,-9.745220473,-2.788902483,-1.445124173
1697888.702,-9.629106557,-2.707443884,-1.37219418
1697898.468,-9.475869833,-2.508662743,-1.433137168
1697908.234,-9.781440146,-2.264418754,-1.220937716
1697917.999,-9.818425872,-2.141467129,-1.073356439
1697927.765,-9.894772084,-1.940313399,-1.015669946
1697937.531,-9.815018957,-1.9346533,-0.732664976
1697947.296,-9.661782233,-1.735872159,-0.793607964
1697957.062,-9.50451769,-1.889035379,-0.451768975
1697966.827,-9.388359424,-1.847488079,-0.374403945
1697976.593,-9.232751971,-1.963965481,-0.198274057
1697986.359,-9.231901251,-2.00226404,-0.113201988
1697996.124,-8.886426151,-1.723621533,-0.181076659
1698005.89,-8.846972932,-1.521638172,-0.081908617
1698015.656,-9.114392315,-1.358015399,0.099230071
1698025.421,-8.960437921,-1.077798919,0.110054042
1698035.187,-9.305372752,-1.115360889,0.231955526
1698044.952,-9.266278368,-0.954095198,0.295240089
1698054.718,-9.343027766,-0.753747839,0.312608065
1698064.484,-9.575029812,-0.756213471,0.189326448
1698074.249,-9.611568003,-0.672366774,0.381661278
1698084.015,-9.688095648,-0.671575911,0.421204438
1698093.781,-9.535665294,-0.474407512,0.279624418
1698103.546,-9.3427536,-0.273199507,0.340024656
1698113.312,-9.341814178,-0.391320664,0.433966799
1698123.077,-9.495853241,-0.231706481,0.41467594
1698132.843,-9.533423585,-0.309924093,0.503795368
1698142.609,-9.687240895,-0.349866406,0.506679693
1698152.374,-9.534810542,-0.152698007,0.365099672
1698162.14,-9.764304777,-0.230148015,0.492599226
1698171.906,-9.880684794,-0.07213882,0.393059012
1698181.671,-9.995589154,-0.151178309,0.441084568
1698191.437,-9.61147527,-0.392181309,0.390934537
1698201.202,-9.421611655,-0.357069464,0.146526792
1698210.968,-9.726601382,-0.271664302,0.416784908
1698220.734,-10.11152164,-0.032274042,0.386297907
1698230.499,-10.30675971,0.041865197,0.09325983
1698240.265,-10.6891278,0.166359781,0.317989036
1698250.031,-10.92202492,0.242104006,0.105200313
1698259.796,-10.95941383,0.364249261,0.212463074
1698269.562,-11.03768727,0.481548541,0.077427058
1698279.327,-11.0757495,0.482347158,0.117357897
1698289.093,-10.92358928,0.558975289,-0.05123553
1698298.859,-11.15263598,0.442420352,0.121017577
1698308.624,-14.19385112,1.916913152,-0.154342382
1698318.39,-18.15532119,3.677049925,-0.147503741
1698328.156,-11.26874183,1.080977879,0.048893955
1698337.921,-10.72803672,0.56546502,0.273250991
1698347.687,-11.38256969,1.124091399,0.204569949
1698357.452,-11.14734216,1.133007994,0.650399696
1698367.218,-12.02814388,1.620635327,1.031766339
1698376.984,-10.87077854,1.467673699,1.383684957
1698386.749,-9.21018973,0.641159002,2.057950114
1698396.515,-8.475407721,0.369184558,2.4592279
1698406.281,-8.429640622,0.343795678,3.189783908
1698416.046,-8.351097051,0.347036667,3.351833329
1698425.812,-8.423903298,0.635270328,3.763516395
1698435.577,-9.037551736,1.198742683,3.937134129
1698445.343,-9.575527281,1.439714669,3.985733448
1698455.109,-10.03648329,1.600879564,4.043978197
1698464.874,-10.07539625,1.639976739,3.998836966
1698474.64,-9.922788491,1.677499942,3.874997092
1698484.406,-9.770092035,1.635200546,3.760027293
1698494.171,-9.731941104,1.554579331,3.728966528
1698503.937,-9.809633954,1.513039784,3.651989176
1698513.702,-9.697104355,1.547329751,3.366487559
1698523.468,-9.541944438,1.469957278,3.497863894
1698533.234,-9.46663038,1.10673924,3.336962
1698542.999,-9.31361944,1.145068813,3.253440643
1698552.765,-9.427943213,0.907190497,3.359524862
1698562.531,-9.392163011,1.141827824,3.091391221
1698572.296,-9.278605289,0.978174036,2.908701821
1698582.062,-9.432958836,1.05715925,2.857962519
1698591.827,-9.241619564,0.855222411,2.761120545
1698601.593,-9.320251836,0.931804021,2.59020105
1698611.359,-9.164555682,0.73550402,2.775201011
1698621.124,-9.282100905,0.851182806,2.559140285
1698630.89,-9.206738465,0.808061532,2.403076613
1698640.656,-9.014814574,0.80729393,2.364696487
1698650.421,-9.171184046,0.882247292,2.112364603
1698660.187,-9.017411086,0.962100905,2.105045242
1698669.952,-9.057307809,1.159230537,1.961526831
1698679.718,-9.325985129,1.000337435,2.016871748
1698689.484,-8.941016492,1.081043939,2.052196971
1698699.249,-8.940568956,1.04193901,2.096950525
1698709.015,-8.903268746,0.999616354,1.980817691
1698718.781,-8.864444496,1.040341777,2.017088848
1698728.546,-8.865069433,1.239091903,1.954595148
1698738.312,-9.018798043,1.119326991,1.966349546
1698748.077,-9.096083676,1.438601878,1.930093896
1698757.843,-9.247437526,1.363586487,2.179324355
1698767.609,-9.401254836,1.323644174,2.182208679
1698777.374,-9.054662914,1.324520326,2.226016298
1698787.14,-9.168986687,1.08664201,2.332100517
1698796.906,-9.592731192,1.285306847,2.265342358
1698806.671,-9.436631853,1.089813217,2.490660836
1698816.437,-9.551983749,1.049878657,2.493932839
1698826.202,-9.743593155,1.131275228,2.563761407
1698835.968,-10.20625464,1.009029177,2.451458832
1698845.734,-10.6661785,1.33225838,2.612918983
1698855.499,-10.97286967,1.494260659,2.71303296
1698865.265,-11.16497096,1.654673459,2.733672939
1698875.031,-11.32057842,1.771150861,2.557543052
1698884.796,-11.0528889,1.728068355,2.40341777
1698894.562,-11.04926023,1.735325688,2.766284416
1698904.327,-11.32228389,1.487739915,2.386995728
1698914.093,-14.25011871,2.958224124,1.911206221
1698923.859,-16.17454661,3.635522164,1.776108178
1698933.624,-10.63832492,1.791042466,1.552123313
1698943.39,-11.56449458,1.944856986,1.242849279
1698953.156,-11.9517009,2.059675126,0.98375629
1698962.921,-11.26206105,1.614339435,0.716971769
1698972.687,-12.26556473,1.767332077,0.366603863
1698982.452,-11.11510192,1.28056539,0.028269483
1698992.218,-9.309255426,0.196873764,-0.156311786
1699001.984,-8.351655928,-0.171004164,-0.550208183
1699011.749,-7.815922092,-0.576459569,-0.822978453
1699021.515,-7.972831833,-0.742586743,-1.129337148
1699031.281,-8.628086499,-0.625403767,-1.270188334
1699041.046,-9.283429865,-0.428398192,-1.419909593
1699050.812,-9.287147232,-0.355832926,-1.791646314
1699060.577,-9.173230676,-0.478769045,-1.938452234
1699070.343,-9.134495127,-0.358221023,-1.91105115
1699080.109,-9.251500081,-0.001461701,-2.073085064
1699089.874,-9.05948749,-0.082051902,-2.102595117
1699099.64,-9.135567599,-0.120365968,-2.018298404
1699109.406,-9.482244191,0.318588542,-2.070572911
1699119.171,-9.404462639,0.28030549,-1.984725485
1699128.937,-9.59558016,0.282685833,-1.865708327
1699138.702,-9.442162003,0.68182984,-1.908507982
1699148.468,-9.632965039,0.764839152,-1.758042381
1699158.234,-9.709581385,0.845452614,-1.727369294
1699167.999,-9.553437696,0.610047684,-1.49761578
1699177.765,-9.513448241,0.693103518,-1.34482411
1699187.531,-9.396931141,0.775368488,-1.231575601
1699197.296,-9.317359447,0.580665721,-0.966713963
1699207.062,-9.161885046,0.583922216,-0.803889186
1699216.827,-9.162421282,0.702849744,-0.857512813
1699226.593,-9.196185558,0.472244268,-0.387786591
1699236.359,-9.119387779,0.591993673,-0.400316345
1699246.124,-9.350986641,0.590334411,-0.483279446
1699255.89,-9.30750157,0.800381475,0.01907376
1699265.656,-9.349325518,0.913656657,-0.317167159
1699275.421,-9.425449978,0.91525389,-0.237305483
1699285.187,-9.425316927,0.795519993,-0.224000372
1699294.952,-9.002689245,0.87462151,-0.268924504
1699304.718,-8.809737232,0.675910152,-0.204492413
1699314.484,-8.657488312,0.672715685,-0.364215766
1699324.249,-9.07921689,0.875412373,-0.229381343
1699334.015,-9.119786932,0.951195366,-0.440231676
1699343.781,-9.159058718,0.949574872,-0.521256387
1699353.546,-9.272172935,0.714115668,-0.294216619
1699363.312,-9.002959379,0.754081242,-0.295937909
1699373.077,-8.965526118,0.592024687,-0.398765633
1699382.843,-9.657363324,0.832965659,-0.351717026
1699392.609,-9.927201817,0.991750211,-0.412489436
1699402.374,-10.42814729,1.069859273,-0.507036356
1699412.14,-11.1209723,1.108824638,-0.558768114
1699421.906,-11.04417452,1.228574043,-0.571297869
1699431.671,-11.0405015,1.195920076,-0.203996185
1699441.437,-11.07883386,1.076178425,-0.191078753
1699451.202,-11.84675118,1.278805331,-0.059733433
1699460.968,-16.73761237,3.546313725,-0.684313771
1699470.734,-17.26985865,3.358744233,-0.062788336
1699480.499,-11.4628147,1.197447528,-0.127623611
1699490.265,-11.95825266,1.046571608,0.328580401
1699500.031,-12.34151179,1.609284114,0.464205686
1699509.796,-13.80153241,2.292319788,0.615989393
1699519.562,-13.14368124,2.020329836,1.016491824
1699529.327,-10.83164786,0.869011964,1.450598187
1699539.093,-9.326976964,0.438353764,1.917688198
1699548.859,-9.093233157,-0.035697084,2.215145806
1699558.624,-8.242647686,0.053166167,2.658308328
1699568.39,-7.699563785,-0.057589108,3.12054461
1699578.156,-7.660558101,0.183499182,3.1749591
1699587.921,-8.389558435,0.707036977,3.351848837
1699597.687,-9.581623441,1.10752235,3.376117482
1699607.452,-10.15842324,1.307768913,3.388445644
1699617.218,-10.08279066,1.385187908,3.259395377
1699626.984,-9.661820071,1.500975243,3.048762144
1699636.749,-9.470392098,1.219215805,2.960790243
1699646.515,-9.433898258,1.175280408,2.764020376
1699656.281,-9.12568305,1.096326208,2.816310391
1699666.046,-9.049381188,0.935083777,2.754188861
1699675.812,-9.049917425,1.054011305,2.700565235
1699685.577,-9.012169679,0.972583719,2.629185954
1699695.343,-8.976929745,0.96614051,2.307025501
1699705.109,-9.16759973,0.929415924,2.470796213
1699714.874,-9.286709311,1.361965993,2.098299644
1699724.64,-9.824463105,1.403381483,2.169074147
1699734.406,-9.862255201,1.524720368,2.236018391
1699744.171,-9.78608639,1.483211835,2.160591752
1699753.937,-9.825987145,1.320333403,2.016670156
1699763.702,-9.555608383,1.402629388,2.131469377
1699773.468,-9.634555139,1.398582029,1.92910144
1699783.234,-9.172300869,1.160013646,2.000682313
1699792.999,-9.17395796,1.196699464,1.834973211
1699802.765,-9.326295581,1.27971653,1.985826491
1699812.531,-9.521533654,1.353855768,1.692788413
1699822.296,-9.328670342,1.234967009,1.74835043
1699832.062,-8.943657355,1.275762214,1.78811069
1699841.827,-8.751600412,1.155260713,1.763035674
1699851.593,-8.86717406,1.31488265,1.744132493
1699861.359,-9.174224062,1.43616726,1.808362991
1699871.124,-9.061246928,1.431352299,1.567614927
1699880.89,-9.405419739,1.435314368,1.765718406
1699890.656,-9.367131725,1.594967319,1.748365937
1699900.421,-9.367623611,1.673983547,1.699177347
1699910.187,-9.51969513,1.517532817,1.876640847
1699919.952,-9.328892094,1.434523505,1.726175246
1699929.718,-9.174671598,1.475272189,1.763609438
1699939.484,-9.288769587,1.397845441,1.892272026
1699949.249,-9.597117846,1.596533538,1.826676901
1699959.015,-9.751112558,1.716236422,1.811821079
1699968.781,-10.36740992,1.754410923,1.720546161
1699978.546,-10.75246726,1.753527017,1.676350864
1699988.312,-10.98281222,1.714375567,1.718778349
1699998.077,-10.9054782,1.715197444,1.759872221
1700007.843,-10.82903926,1.79422918,1.711458988
1700017.609,-10.86741597,1.714398828,1.719941383
1700027.374,-10.67611702,1.912381351,1.619067557
1700037.14,-10.56197871,1.589888736,1.49443682
1700046.906,-10.63913129,1.789429726,1.47148628
1700056.671,-13.18106611,2.502483155,1.124157769
1700066.437,-18.25865817,4.461145201,1.057260047
1700076.202,-10.95384181,1.895393299,0.769664969
1700085.968,-10.26312546,1.572210618,0.610530886
1700095.734,-11.34154404,1.729219604,0.460980205
1700105.499,-11.03682445,1.523274174,0.163708683
1700115.265,-12.9640303,2.155016321,-0.249183938
1700125.031,-11.19561707,1.23338125,-0.330937483
1700134.796,-9.160010235,-0.012328162,-0.616408085
1700144.562,-8.351079373,-0.689851054,-0.492552705
1700154.327,-7.740789468,-1.140040474,-1.002023679
1700164.093,-7.973509184,-1.223941445,-1.197072255
1700173.859,-8.973787382,-1.064497841,-1.224892032
1700183.624,-9.477107612,-1.0311383,-1.556915013
1700193.39,-9.207313469,-1.150011553,-1.50057764
1700203.156,-9.284869236,-0.951276934,-1.563846697
1700212.921,-9.630787839,-0.830806448,-1.540322393
1700222.687,-9.707807371,-0.750999356,-1.549967823
1700232.452,-9.633876238,-0.596983245,-1.849162228
1700242.218,-9.631993363,-0.473217495,-1.660874757
1700251.984,-9.749449885,-0.437361308,-1.868065409
1700261.749,-9.74680499,-0.272071519,-1.603575942
1700271.515,-9.746180053,-0.470821645,-1.541082242
1700281.281,-9.514847294,-0.229694587,-1.484729362
1700291.046,-9.590475836,0.052894482,-1.35527591
1700300.812,-9.589000178,-0.184154203,-1.207710141
1700310.577,-9.433437076,-0.260720306,-1.03601529
1700320.343,-9.353595249,-0.334882805,-0.744140246
1700330.109,-9.275007327,-0.371553116,-0.577655788
1700339.874,-9.120294945,-0.40982066,-0.491033007
1700349.64,-9.001225683,-0.442451366,-0.122568289
1700359.406,-9.267975778,-0.517490017,0.125499135
1700369.171,-9.306570212,-0.037755809,0.112209532
1700378.937,-9.419994883,0.006164081,0.308204043
1700388.702,-9.575691036,0.202464082,0.123204081
1700398.468,-10.18921045,0.286194475,0.309723741
1700408.234,-10.07385856,0.326129035,0.306451738
1700417.999,-9.919234879,0.367684089,0.384204446
1700427.765,-9.573808161,0.326229831,0.311491552
1700437.531,-9.264963985,0.408533569,0.426678452
1700447.296,-9.036187419,0.404548239,0.227411939
1700457.062,-9.229272483,0.722993495,0.149674738
1700466.827,-9.42164391,0.762866026,0.143301311
1700476.593,-9.269084537,0.480292464,0.014623216
1700486.359,-9.346015368,0.480276957,0.01384786
1700496.124,-9.270378761,0.917704016,-0.114799222
1700505.89,-8.810184767,0.715015081,-0.249245966
1700515.656,-8.963332791,0.436411342,-0.179432905
1700525.421,-8.924641592,0.596870663,-0.156466857
1700535.187,-9.11782342,0.27512239,-0.243880502
1700544.952,-9.656782737,0.674126833,-0.293658363
1700554.718,-9.965671265,0.631734394,-0.413280299
1700564.484,-10.2339454,0.473647663,-0.317616866
1700574.249,-10.50544098,0.669118032,-0.544098377
1700584.015,-10.50400968,0.471980647,-0.400967644
1700593.781,-10.27147139,0.355518752,-0.224062401
1700603.546,-10.23296566,-0.044392857,-0.219642871
1700613.312,-10.27124964,0.155962256,-0.201887217
1700623.077,-10.80783823,0.239708156,-0.014592201
1700632.843,-14.69761888,1.989377622,-0.531118916
1700642.609,-18.73163313,3.438272197,-0.086390175
1700652.374,-11.6954941,0.713627193,-0.318640336
1700662.14,-12.30601382,0.643356982,0.167849085
1700671.906,-13.92257728,1.920999279,0.049963946
1700681.671,-14.53784249,2.121238089,0.06190443
1700691.437,-13.57114714,1.931551875,0.57759376
1700701.202,-11.22234979,0.856838873,0.841943663
1700710.968,-10.02616424,0.384594605,1.229730254
1700720.734,-9.139000256,-0.010308204,1.484589798
1700730.499,-8.55682197,0.040202213,2.010110643
1700740.265,-7.593622231,-0.276475231,2.176238438
1700750.031,-6.974546921,-0.269093841,2.545307933
1700759.796,-7.165438658,-0.106261931,2.68690346
1700769.562,-8.241204283,0.936052972,2.802648616
1700779.327,-9.474911803,1.650176394,2.508819675
1700789.093,-10.47362161,1.852756779,2.637838928
1700798.859,-10.58821149,1.854346259,2.717312926
1700808.624,-10.24439751,1.809666519,2.483325967
1700818.39,-9.937033022,1.769010878,2.450543912
1700828.156,-9.745959852,1.806541834,2.327091717
1700837.921,-9.784699433,1.325985749,2.299287448
1700847.687,-9.592235274,1.566298683,2.314934134
1700857.452,-9.131057508,1.205577291,2.278864569
1700867.218,-9.091249486,1.088270258,2.413512906
1700876.984,-9.130521272,1.086649764,2.332488195
1700886.749,-9.360817846,1.367595078,2.379753902
1700896.515,-9.861315779,1.406599211,2.329960534
1700906.281,-9.863017221,1.483196328,2.159816396
1700916.046,-9.901434254,1.803285339,2.16426694
1700925.812,-9.863509107,1.562212556,2.110627806
1700935.577,-9.709111209,1.443316043,2.165802145
1700945.343,-9.557894443,1.278057268,1.90286339
1700955.109,-9.442010343,0.839056237,1.952811829
1700964.874,-9.291019361,0.513345894,1.667294705
1700974.64,-9.328093787,0.716120118,1.806005908
1700984.406,-9.251029905,0.596401727,1.820086375
1700994.171,-9.367188171,0.554854427,1.742721345
1701003.937,-9.521408667,0.514105743,1.705287153
1701013.702,-9.254299737,0.629862064,1.493103208
1701023.468,-9.483346437,0.513307126,1.665356315
1701033.234,-9.330109713,0.712088267,1.604413327
1701042.999,-9.40838315,0.829387546,1.469377312
1701052.765,-9.485535732,1.028928535,1.446426771
1701062.531,-9.485894567,0.988210866,1.410543292
1701072.296,-9.409637056,0.866879735,1.343986726
1701082.062,-9.331585371,0.949136951,1.456847557
1701091.827,-9.371482093,1.146266583,1.313329146
1701101.593,-9.407887232,1.110379382,1.518969087
1701111.359,-9.408334768,1.149484311,1.474215533
1701121.124,-9.488265296,1.303469408,1.173470416
1701130.89,-9.794242826,1.186898963,1.344948167
1701140.656,-9.94667318,0.989730564,1.486528188
1701150.421,-10.10156296,1.187643305,1.382165259
1701160.187,-10.37055074,1.308129298,1.406464919
1701169.952,-10.17826801,1.348079365,1.403968272
1701179.718,-10.56430912,1.505227916,1.261395796
1701189.484,-10.67867321,1.667268963,1.363448164
1701199.249,-10.52405356,1.348815954,1.440797686
1701209.015,-10.3322224,1.067862886,1.393144302
1701218.781,-10.37032898,1.108572802,1.428640103
1701228.546,-11.68195514,1.620705109,1.035255441
1701238.312,-17.41892241,3.768309026,0.415451296
1701248.077,-13.95033007,2.462416785,1.120839245
1701257.843,-9.567978104,0.897889946,0.894497298
1701267.609,-12.18366666,1.297282067,0.864103339
1701277.374,-12.33922976,1.37384817,0.692408489
1701287.14,-12.26310933,1.012242873,0.612143627
1701296.906,-12.34353175,1.245244198,0.26220992
1701306.671,-11.03656641,0.563790251,0.189512534
1701316.437,-9.574171028,-0.074495902,0.275204888
1701326.202,-8.808672823,-0.281961031,-0.09805153
1701335.968,-8.615454708,-0.720140184,-0.007009219
1701345.734,-7.888559001,-1.167887232,-0.394361611
1701355.499,-7.50310251,-1.52620502,-0.310250983
1701365.265,-7.735999628,-1.450460794,-0.523039706
1701375.031,-8.390984159,-1.21273755,-0.636877486
1701384.796,-9.472128275,-0.421179627,-1.058981337
1701394.562,-10.08954246,-0.105238771,-1.261938545
1701404.327,-10.08922798,-0.024609802,-1.230490103
1701414.093,-9.936128337,-0.066102828,-1.305141386
1701423.859,-9.665616524,-0.103540741,-1.177037054
1701433.624,-9.707621905,-0.190628426,-1.531421305
1701443.39,-9.82212308,-0.268861545,-1.443077233
1701453.156,-9.93707179,-0.307989734,-1.399486714
1701462.921,-10.01557101,-0.351142022,-1.557101099
1701472.687,-10.12926582,-0.4277624,-1.388119994
1701482.452,-10.08967955,-0.345512937,-1.275646841
1701492.218,-10.01279307,-0.30558613,-1.279306522
1701501.984,-9.895473626,-0.581716483,-1.085824165
1701511.749,-9.854947935,-0.617588177,-0.879408869
1701521.515,-9.777162352,-0.295863165,-0.793158258
1701531.281,-9.66127422,-0.374856133,-0.742806634
1701541.046,-9.659480046,-0.171267785,-0.563389237
1701550.812,-9.503602459,-0.167204919,-0.360245943
1701560.577,-9.6178335,-0.124897769,-0.244888465
1701570.343,-9.656250533,0.195191242,-0.240437921
1701580.109,-9.464100858,0.354875206,-0.256239678
1701589.874,-9.57922697,0.475392214,-0.230389306
1701599.64,-9.538745629,0.479431819,-0.028409047
1701609.406,-9.346237119,0.679833454,-0.008327324
1701619.171,-9.267782249,0.76289704,0.144852023
1701628.937,-9.344535678,0.603236336,0.161816814
1701638.702,-9.192238375,0.920138634,0.006931683
1701648.468,-9.42083754,0.764478767,0.223938344
1701658.234,-9.423925938,0.99830197,-0.084901491
1701667.999,-9.423030867,0.920092112,0.004605615
1701677.765,-9.69201864,1.040578105,0.028905275
1701687.531,-9.423788855,1.238576136,-0.071193195
1701697.296,-9.384968637,0.919293496,-0.035325223
1701707.062,-9.384565452,0.920099866,0.004993293
1701716.827,-9.305888829,0.803606956,0.180347825
1701726.593,-9.076664728,0.760516697,0.025834865
1701736.359,-9.192286758,0.600041869,0.002093461
1701746.124,-9.425494328,0.95516519,-0.241740519
1701755.89,-9.730709838,0.880118785,0.005939228
1701765.656,-9.809567894,0.796248827,-0.187558636
1701775.421,-9.733443434,0.794651594,-0.267420313
1701785.187,-9.923488482,0.559176882,-0.041155901
1701794.952,-9.733177332,0.555183798,-0.240810092
1701804.718,-9.69188962,0.560836144,0.0418072
1701814.484,-9.654004792,0.719682724,-0.015863785
1701824.249,-9.768550317,0.681360905,0.06804525
1701834.015,-9.92246036,0.361233126,0.061656316
1701843.781,-11.77340467,1.231652206,-0.417389686
1701853.546,-17.1982539,3.788107588,-0.59462058
1701863.312,-12.6548797,1.597932901,-0.103354966
1701873.077,-11.77085654,0.756748467,-0.162576663
1701882.843,-13.26710087,1.604259806,0.212990316
1701892.609,-14.03730021,2.042322657,0.116132834
1701902.374,-14.18874276,2.047129864,0.35649322
1701912.14,-12.22092655,0.939685361,0.984268025
1701921.906,-10.98766253,0.624674932,1.233746598
1701931.671,-10.32931947,0.273668752,1.683437619
1701941.437,-9.939871446,0.323334031,2.166701558
1701951.202,-8.708933808,0.283670846,2.183542292
1701960.968,-7.93541625,0.132244423,2.612221163
1701970.734,-7.587526071,0.055717088,2.785854404
1701980.499,-7.933529343,0.616018236,2.800911819
1701990.265,-9.087350686,1.216067859,2.803392958
1702000.061,-10.08905616,1.932656913,2.632845634
1702009.796,-10.66800493,2.248605522,2.430276104
1702019.562,-10.43748257,2.128111775,2.405588767
1702029.327,-10.08972545,2.171318338,2.565916897
1702039.093,-9.668174269,2.128266847,2.413342327
1702048.859,-9.053489645,2.086866864,2.34334318
1702058.624,-9.247788297,2.042884945,2.144247246
1702068.39,-8.782844781,1.929695052,2.484752623
1702078.156,-8.899091748,1.96797035,2.398517519
1702087.921,-9.090435052,1.809899126,2.494956309
1702097.687,-9.475758492,2.048483016,2.424150791
1702107.452,-9.516461585,2.243999907,2.199995348
1702117.218,-9.902103541,2.041946764,2.097338203
1702126.984,-9.822576198,1.887155296,2.357764803
1702136.749,-9.862476953,1.724276864,2.213843207
1702146.515,-9.671315081,1.681985222,2.099261086
1702156.281,-9.17086553,1.322884325,2.144216231
1702166.046,-9.247800392,0.962860754,2.14303769
1702175.812,-9.209109193,1.123320075,2.166003737
1702185.577,-8.942137347,0.99880223,1.940111496
1702195.343,-9.096043358,1.038682515,1.934125747
1702205.109,-9.287878548,0.959627519,1.981375947
1702214.874,-9.288951021,1.197482574,1.874128694
1702224.64,-9.596718693,1.237331845,1.866592232
1702234.406,-9.250884759,1.556692021,1.834601041
1702244.171,-9.443929505,1.475217914,1.760895691
1702253.937,-9.482080435,1.555839129,1.791956456
1702263.702,-9.100155847,1.830457538,1.522876881
1702273.468,-9.136560986,1.794570336,1.728516821
1702283.234,-8.983816148,2.072367705,1.618385243
1702292.999,-9.177308429,2.029998527,1.499926341
1702302.765,-9.177530181,2.229555023,1.477751157
1702312.531,-9.138750281,2.310191746,1.509587278
1702322.296,-9.408411373,2.3093311,1.466555015
1702332.062,-9.48592279,2.46815442,1.407720996
1702341.827,-9.6396514,2.348389508,1.419475394
1702351.593,-9.486596109,2.346807781,1.340389074
1702361.359,-9.983868562,2.392262877,1.613143836
1702371.124,-10.25509804,2.348265451,1.413272545
1702380.89,-10.48432618,2.031347646,1.56738232
1702390.656,-10.17803416,2.22854706,1.427353012
1702400.421,-10.21587464,2.029789181,1.489459034
1702410.187,-10.10115171,1.908465803,1.423290146
1702419.952,-10.25528351,1.787894521,1.394726028
1702429.718,-13.49124887,2.897502268,0.875113396
1702439.484,-17.3741794,4.300871965,1.043598273
1702449.249,-10.68247928,1.819656827,0.98284137
1702459.015,-12.37446566,1.740299443,1.014972126
1702468.781,-12.64470331,2.258285688,0.914284385
1702478.546,-12.30017973,1.57502516,0.751258015
1702488.312,-13.30121591,2.052952789,0.647639428
1702498.077,-11.6492714,1.369149512,0.457475596
1702507.843,-10.07143945,0.330967257,0.548362836
1702517.609,-9.342031898,0.168243896,0.4121948
1702527.374,-8.84507393,0.042159832,0.107991595
1702537.14,-8.193585014,-0.322554643,-0.127732161
1702546.906,-7.657581044,-0.60746978,-0.373489025
1702556.671,-7.503408931,-0.886817861,-0.340893055
1702566.437,-7.390072961,-0.850915153,-0.545757639
1702576.202,-8.275890303,-0.213319067,-0.665953339
1702585.968,-9.238686857,0.104164748,-0.791762617
1702595.734,-9.433654796,0.298844254,-1.057787289
1702605.499,-9.319335055,0.176714506,-1.164274693
1702615.265,-9.166997434,0.093697441,-1.315127973
1702625.031,-9.474720756,0.093635412,-1.318229397
1702634.796,-9.666148729,0.37539485,-1.230257496
1702644.562,-9.511750832,0.256498337,-1.175083157
1702654.327,-9.551341133,-0.18575919,-1.287959495
1702664.093,-9.780835369,-0.263209199,-1.160459941
1702673.859,-9.740535461,-0.45953246,-0.976623014
1702683.624,-9.819482217,-0.463579819,-1.178990952
1702693.39,-9.739462988,-0.697387515,-0.869375761
1702703.156,-9.890861188,-0.732491607,-0.624580339
1702712.921,-10.00491483,-0.849829654,-0.491482713
1702722.687,-10.11793631,-0.805103394,-0.255169687
1702732.452,-10.03952579,-0.682128508,-0.106425376
1702742.218,-9.881317795,-0.593404821,0.329758942
1702751.984,-10.11255782,-0.554346414,0.28267932
1702761.749,-9.957934141,-0.512791359,0.360432028
1702771.515,-9.955063463,-0.187050003,0.647499864
1702781.281,-9.917985005,-0.029816163,0.509191846
1702791.046,-9.837784342,-0.063260993,0.836950369
1702800.812,-9.646844223,0.094003861,0.700193064
1702810.577,-9.570586712,-0.02732727,0.633636498
1702820.343,-9.454920332,0.093236259,0.661812938
1702830.109,-9.491861707,0.176276585,0.813829251
1702839.874,-9.570764113,0.132317927,0.61589635
1702849.64,-9.571969637,0.48990688,0.495343987
1702859.406,-9.37879184,0.451647089,0.582354446
1702869.171,-9.648094097,0.491504113,0.575205663
1702878.937,-9.573404976,0.327036201,0.351810069
1702888.702,-9.383182527,0.402865716,0.143285804
1702898.468,-9.572957441,0.287931272,0.396563622
1702908.234,-9.497099083,0.525801834,0.290091725
1702917.999,-9.61173734,0.20729455,0.364727501
1702927.765,-9.802943562,0.289497492,0.474874586
1702937.531,-9.806346445,0.442691726,0.134586309
1702947.296,-10.03637692,0.484169245,0.208462236
1702957.062,-9.881575834,0.366079102,0.303955091
1702966.827,-9.842529832,0.207248029,0.362401433
1702976.593,-9.881039597,0.247151574,0.357578718
1702986.359,-10.07296349,0.247919177,0.395958844
1702996.124,-9.805584425,0.484215766,0.210788305
1703005.89,-9.84400549,0.444296713,0.214835663
1703015.656,-9.88211207,0.485006629,0.250331465
1703025.421,-9.88206772,0.44509533,0.254766502
1703035.187,-9.95828088,0.526515162,0.325758104
1703044.952,-9.68960356,0.685408264,0.270413187
1703054.718,-9.765461918,0.447537702,0.376885084
1703064.484,-9.997282532,0.645434936,0.2717468
1703074.249,-12.03778,1.201363076,0.0681538
1703084.015,-16.80549572,3.404393168,0.219658378
1703093.781,-11.95744226,1.408192412,0.409620618
1703103.546,-10.49549844,0.449003125,0.450156234
1703113.312,-13.64964636,1.888399588,0.419979376
1703123.077,-14.84350151,2.445304676,0.265233809
1703132.843,-13.3416529,2.009001884,0.450094206
1703142.609,-11.22149907,0.818540315,0.927015732
1703152.374,-10.10569561,0.179378009,0.968900468
1703162.14,-9.02441038,-0.011897684,1.405115799
1703171.906,-8.559418483,0.195009188,1.750459398
1703181.671,-8.093894381,-0.077019531,2.149023439
1703191.437,-7.628055795,-0.268419282,2.579035922
1703201.202,-7.165567677,0.373480031,2.674001535
1703210.968,-8.125582254,1.0965278,2.82639002
1703220.734,-9.24004311,1.618375319,2.918765943
1703230.499,-10.31733681,2.217634078,2.881703923
1703240.265,-10.81779039,2.216726912,2.836345592
1703250.031,-10.66370295,2.377209493,2.860474673
1703259.796,-9.969628062,1.940743877,3.037193831
1703269.562,-9.779990231,1.815404154,2.770207718
1703279.327,-9.739061354,1.780338831,3.01694153
1703289.093,-9.700108085,1.341322292,3.066114613
1703298.859,-9.238252968,1.461955603,3.097780156
1703308.624,-9.278109372,1.259165872,2.958293596
1703318.39,-9.430491343,1.382094237,3.104711839
1703328.156,-9.736646275,1.425168989,3.258449443
1703337.921,-10.16241074,1.25979391,2.989695518
1703347.687,-10.00787979,1.021163499,3.058174967
1703357.452,-10.00913369,1.058655688,2.932784381
1703367.218,-9.931444876,0.740187171,3.009358548
1703376.984,-9.894906686,0.656340474,2.817023718
1703386.749,-9.704240733,0.333056996,2.652849821
1703396.515,-9.704825351,0.131887759,2.594387973
1703406.281,-9.361055725,0.12711932,2.355965977
1703416.046,-9.438841308,-0.194605693,2.269715367
1703425.812,-9.323622464,-0.034937235,2.253138254
1703435.577,-9.36374497,0.001740829,2.087041474
1703445.343,-9.479588751,0.040822498,2.041124887
1703455.109,-9.173252386,0.198110612,1.905530615
1703464.874,-9.021180867,0.354561342,1.728067115
1703474.64,-8.867137773,0.554955223,1.747761159
1703484.406,-8.828357873,0.635591946,1.77959728
1703494.171,-9.01920526,0.758512557,1.925627845
1703503.937,-9.174228094,1.076159196,1.807959806
1703513.702,-9.138806727,1.270078854,1.503942686
1703523.468,-9.330283083,1.231741527,1.587076365
1703533.234,-9.290249277,1.274886061,1.744303071
1703542.999,-9.096756996,1.317255239,1.862761973
1703552.765,-9.058606065,1.236634024,1.831701209
1703562.531,-9.06053329,1.152779574,1.638978701
1703572.296,-9.174046661,1.276522063,1.826103138
1703582.062,-9.405197987,1.235757872,1.78789359
1703591.827,-9.7106796,1.400179262,2.008963116
1703601.593,-10.17481674,1.514981895,1.749094772
1703611.359,-10.51912261,1.638677863,1.93389314
1703621.124,-10.82675723,1.558793236,1.93966179
1703630.89,-10.78640894,1.682566739,2.128336939
1703640.656,-10.44299815,1.637080629,1.854031464
1703650.421,-10.51917099,1.318581098,1.929054918
1703660.187,-10.71046994,1.120598575,2.029928745
1703669.952,-10.36526498,1.278700813,1.935040667
1703679.718,-10.3268923,0.998523102,1.926155087
1703689.484,-12.25351756,1.471426423,1.571321129
1703699.249,-18.06615772,3.941530708,1.076535399
1703709.015,-11.71679592,1.267946624,1.397331224
1703718.781,-11.18236034,0.939894707,0.994735332
1703728.546,-12.21926543,1.263007606,1.150380312
1703738.312,-11.52962558,0.817671916,0.883595791
1703748.077,-12.49318415,1.09363169,0.681584518
1703757.843,-11.91638839,0.533377063,0.668853171
1703767.609,-9.993976414,-0.147952827,0.602358633
1703777.374,-9.381493181,-0.753755592,0.312220387
1703787.14,-8.727899638,-1.194260814,0.286959286
1703796.906,-8.038529925,-1.760136773,-0.006838641
1703806.671,-7.809620308,-1.883856001,-0.192800043
1703816.437,-8.388839214,-1.68844766,-0.422382979
1703826.202,-9.275422608,-1.452383677,-0.61918386
1703835.968,-9.624248176,-0.897727121,-0.886356059
1703845.734,-9.354050848,-1.015794003,-0.78970017
1703855.499,-9.358800369,-1.105293046,-1.264652292
1703865.265,-9.320020469,-1.024656323,-1.232816171
1703875.031,-9.204535523,-1.104455661,-1.222783063
1703884.796,-9.588338955,-1.142831755,-1.141587774
1703894.562,-9.665314136,-1.102935963,-1.146798167
1703904.327,-9.625860917,-0.900952602,-1.047630124
1703914.093,-9.704718972,-0.98482256,-1.241127988
1703923.859,-9.816438169,-0.657491723,-0.874586154
1703933.624,-9.854814884,-0.737322075,-0.866103758
1703943.39,-9.968150853,-0.773224783,-0.661239174
1703953.156,-9.966267979,-0.649459034,-0.472951703
1703962.921,-9.734177231,-0.726816,-0.340800012
1703972.687,-9.807031859,-0.758679103,0.066044831
1703982.452,-9.692752437,-0.480889488,-0.044474425
1703992.218,-9.882974886,-0.556719003,0.16404984
1704001.984,-9.765740116,-0.393018694,0.349065308
1704011.749,-9.840969505,-0.469631318,0.518434091
1704021.515,-9.878805952,-0.308381134,0.580943298
1704031.281,-9.914852256,-0.303550666,0.822466718
1704041.046,-9.763542757,-0.188623976,0.568801222
1704050.812,-9.60842719,-0.22608515,0.69574252
1704060.577,-9.531722143,-0.38652121,0.673939507
1704070.343,-9.415386476,-0.504619106,0.769044684
1704080.109,-9.145858435,-0.384024563,0.798771836
1704089.874,-9.416773433,-0.34739302,0.630348988
1704099.64,-9.34046754,-0.148627387,0.568630644
1704109.406,-9.534810542,-0.152698007,0.365099672
1704119.171,-9.536645034,0.043633008,0.181650423
1704128.937,-9.650743024,-0.03379374,0.310313011
1704138.702,-9.190815132,0.002985121,0.149256046
1704148.468,-9.383367992,-0.157505214,0.124739287
1704158.234,-9.577396509,-0.080946865,-0.047343242
1704167.999,-9.615950625,-0.00113202,-0.056600994
1704177.765,-9.809265505,-0.203146395,-0.157319749
1704187.531,-9.65594008,-0.084187853,-0.209392664
1704197.296,-9.886285036,-0.123339304,-0.166965179
1704207.062,-9.886014902,-0.002799035,-0.139951773
1704216.827,-10.00418909,-0.048378188,-0.418909384
1704226.593,-9.964425422,-0.125773922,-0.288696084
1704236.359,-9.810741163,0.03390229,-0.304885519
1704246.124,-9.965006009,0.033064905,-0.346754747
1704255.89,-10.03902584,-0.041128608,-0.056430416
1704265.656,-9.965497895,0.112081133,-0.395943337
1704275.421,-9.963078784,0.116919355,-0.154032239
1704285.187,-10.46268165,0.07771363,-0.114318501
1704294.952,-10.23005063,0.2414372,0.071860002
1704304.718,-11.53858839,0.519746303,-0.012684826
1704314.484,-16.61926884,2.712231552,-0.388422383
1704324.249,-14.84539245,1.601522799,0.076139967
1704334.015,-10.15039427,-0.393096229,0.345188528
1704343.781,-11.84317896,0.245949772,0.297488622
1704353.546,-13.26571794,1.087025657,0.351282827
1704363.312,-14.03381266,1.44929776,0.464888
1704373.077,-12.53053275,0.815857583,0.79287913
1704382.843,-10.7208318,-0.100125142,0.993742876
1704392.609,-9.600948105,-0.41112698,1.443650997
1704402.374,-9.096865856,-0.402962481,1.851875974
1704412.14,-8.554858459,-0.635870764,2.206461818
1704421.906,-7.939234413,-0.795391904,2.230404813
1704431.671,-7.896015445,-0.345877044,2.706147798
1704441.437,-8.856122754,0.09698526,2.849263024
1704451.202,-9.321102556,0.97010258,2.50512898
1704460.968,-10.28403216,1.407320292,2.366014592
1704470.734,-10.43703907,1.728998783,2.449939135
1704480.499,-10.09192684,1.606915556,2.345777798
1704490.265,-9.86059811,1.48803455,2.401727493
1704500.031,-9.477689749,1.604620502,2.231025098
1704509.796,-9.746141285,1.606178968,2.308948385
1704519.562,-9.436490738,1.690095446,2.504772317
1704529.327,-9.283302397,1.568779822,2.438991107
1704539.093,-9.167636017,1.689343351,2.467167547
1704548.859,-9.087479705,1.695809821,2.790491033
1704558.624,-9.396412582,1.693328681,2.66643406
1704568.39,-9.396456933,1.73323998,2.661999023
1704578.156,-9.551124964,1.731596226,2.579811278
1704587.921,-9.858134648,1.452961473,2.648073628
1704597.687,-9.779276593,1.53683143,2.841571492
1704607.452,-9.781877137,1.331630341,2.581517062
1704617.218,-9.666617974,1.091379436,2.5689718
1704626.984,-9.321239639,0.729828414,2.491420685
1704636.749,-9.398980872,0.368192102,2.409605111
1704646.515,-9.399025222,0.408103401,2.405170074
1704656.281,-9.478419514,0.443160972,2.158048584
1704666.046,-9.630938569,0.325815171,2.290758531
1704675.812,-9.67074659,0.443122204,2.156110194
1704685.577,-9.517961434,0.321000209,2.050010467
1704695.343,-9.404891566,0.596370713,1.818535663
1704705.109,-9.251074256,0.636313027,1.815651338
1704714.874,-9.406367224,0.833419398,1.670969893
1704724.64,-9.407842882,1.070468082,1.523404123
1704734.406,-9.406455925,0.913241996,1.662099819
1704744.171,-9.601202112,0.908365007,1.418250331
1704753.937,-9.252997449,0.91246664,1.623332015
1704763.702,-9.176332721,1.151949943,1.597497151
1704773.468,-9.176421422,1.231772542,1.588627077
1704783.234,-9.291503183,1.31237825,1.618912486
1704792.999,-9.561164275,1.311517604,1.575880223
1704802.765,-9.601778667,1.427211897,1.360594853
1704812.531,-9.59882332,1.313122592,1.656129578
1704822.296,-10.17669962,1.391216146,1.560807301
1704832.062,-10.29209587,1.391192885,1.559644267
1704841.827,-10.33060563,1.431096431,1.554821552
1704851.593,-10.79169873,1.35198716,1.599358005
1704861.359,-10.67576221,1.593090957,1.654547851
1704871.124,-10.63909097,1.389510363,1.475518132
1704880.89,-10.79125119,1.312882231,1.644111558
1704890.656,-10.71651369,1.468511084,1.425554186
1704900.421,-10.52494863,1.427025812,1.35129058
1704910.187,-10.37511882,1.418993123,0.94965613
1704919.952,-10.3731029,1.423024974,1.151248711
1704929.718,-10.98854954,1.422900917,1.145045862
1704939.484,-13.917731,2.65069185,0.534592512
1704949.249,-17.03261117,3.731700744,0.585037178
1704959.015,-11.1463987,1.3748949,0.744745024
1704968.781,-11.30505424,1.325276143,0.263807153
1704978.546,-11.72781094,1.725916587,0.29582936
1704988.312,-12.19257705,1.679461283,-0.02693587
1704998.077,-12.30990052,1.595583572,-0.220821412
1705007.843,-10.46375009,0.675576749,-0.221162569
1705017.609,-9.234296171,0.152946121,-0.352693975
1705027.374,-8.735148907,-0.488759353,-0.437967637
1705037.14,-8.353635567,-0.934963442,-0.748172098
1705046.906,-7.816018857,-1.216653098,-0.832654897
1705056.671,-7.506509424,-1.733018849,-0.650942445
1705066.437,-7.470507471,-1.697938018,-0.896900902
1705076.202,-8.126520124,-1.262271018,-1.113550898
1705085.968,-8.895554263,-0.781877757,-1.093887868
1705095.734,-9.781282904,-0.22410427,-1.205213494
1705105.499,-9.666963163,-0.346234018,-1.311700899
1705115.265,-9.628856582,-0.386943934,-1.3471967
1705125.031,-9.322254115,-0.469123615,-1.456180751
1705134.796,-9.476789095,-0.590501268,-1.525063385
1705144.562,-9.630965241,-0.671161251,-1.55806254
1705154.327,-9.513911904,-0.707823808,-1.391190404
1705164.093,-9.323108868,-0.79083312,-1.541656006
1705173.859,-9.785500221,-0.792538903,-1.626945175
1705183.624,-9.744389911,-0.627241361,-1.36206803
1705193.39,-9.821320742,-0.627256868,-1.362843386
1705203.156,-9.974597784,-0.426118645,-1.305932249
1705212.921,-9.779182309,-0.65990308,-0.995154024
1705222.687,-9.890861188,-0.732491607,-0.624580339
1705232.452,-9.698441379,-0.452267374,-0.61336869
1705242.218,-9.733862746,-0.646187031,-0.30935157
1705251.984,-9.616761028,-0.362752824,-0.137641212
1705261.749,-9.733052344,-0.284566227,-0.228311352
1705271.515,-9.766316671,0.125828197,0.29140983
1705281.281,-9.804378901,0.126626813,0.331340668
1705291.046,-9.919908198,0.24633745,0.316872524
1705300.812,-9.841408977,0.289489738,0.474486908
1705310.577,-9.650872043,0.445948222,0.297411086
1705320.343,-9.460605243,0.481866437,0.093321858
1705330.109,-9.306074295,0.243236026,0.161801307
1705339.874,-9.151898149,0.323896009,0.194800462
1705349.64,-9.076580059,0.320686035,0.034301753
1705359.406,-9.192198057,0.520219271,0.010963535
1705369.171,-9.306340397,0.482703822,0.135191087
1705378.937,-9.308041838,0.559300939,-0.034953052
1705388.702,-9.155030898,0.597630512,-0.118474409
1705398.468,-9.271685081,0.275091376,-0.245431214
1705408.234,-9.233086615,0.155365231,-0.231738426
1705417.999,-9.30876354,0.117857536,-0.107123196
1705427.765,-9.232102843,-0.002667225,-0.133361246
1705437.531,-8.886897878,0.155435014,-0.228249324
1705447.296,-9.270298124,0.11786529,-0.106735518
1705457.062,-9.654593442,0.158505424,-0.074728819
1705466.827,-9.847992991,0.396321711,-0.183914463
1705476.593,-10.15522443,0.317243454,-0.137827297
1705486.359,-10.03902181,0.318879455,-0.056027231
1705496.124,-10.03852992,0.239863227,-0.006838641
1705505.89,-10.03736472,0.282193637,0.109681871
1705515.656,-10.03700588,0.322911307,0.145565351
1705525.421,-10.73175409,0.638030285,-0.09848573
1705535.187,-14.4664232,1.990230513,-0.488474332
1705544.952,-16.92631481,3.193524226,-0.3237887
1705554.718,-12.0771042,0.519637754,-0.018112318
1705564.484,-12.65497647,0.957739372,-0.11303141
1705574.249,-14.42410737,1.797939104,-0.103044823
1705584.015,-14.61585386,1.639061509,-0.04692455
1705593.781,-13.19362533,1.07736472,-0.131764013
1705603.546,-11.76342987,-0.108398192,0.580090407
1705613.312,-10.22226513,-0.582991789,0.850410551
1705623.077,-9.332544951,-0.73278221,1.360889488
1705632.843,-8.867198251,-0.845165732,1.741713382
1705642.609,-8.286136788,-0.516888961,2.155551937
1705652.374,-7.820697355,-0.349087018,2.545649089
1705662.14,-7.586006063,-0.221242896,2.93785521
1705671.906,-7.932456871,0.378163181,2.908159072
1705681.671,-8.77761547,0.860153676,3.007683779
1705691.437,-10.16254379,1.379527808,2.976390407
1705701.202,-10.62501981,1.817652687,2.88263435
1705710.968,-10.3557619,1.817706962,2.885348096
1705720.734,-10.01060532,1.655712436,2.785621797
1705730.499,-9.741617548,1.535226443,2.761322137
1705740.265,-9.626310003,1.615072302,2.753615098
1705750.031,-9.280971986,1.653440643,2.672032131
1705759.796,-9.281016337,1.693351942,2.667597094
1705769.562,-9.04905864,1.735728873,2.786443674
1705779.327,-9.280838935,1.533706745,2.685337241
1705789.093,-9.587933288,1.694902654,2.745132702
1705798.859,-9.704494739,1.652548983,2.627449156
1705808.624,-10.05068348,1.652479201,2.623960054
1705818.39,-10.27941972,1.256545168,2.827258418
1705828.156,-10.20378715,1.333964163,2.698208152
1705837.921,-9.933638203,0.895800516,2.790025819
1705847.687,-9.587586549,0.655596133,2.779806626
1705857.452,-9.318913261,0.45448117,2.724058524
1705867.218,-9.590372559,-0.109975886,2.501205679
1705876.984,-9.590191125,0.09038698,2.519349011
1705886.749,-9.362628147,-0.276025525,2.198723764
1705896.515,-9.399972707,-0.193791569,2.310421561
1705906.281,-9.401899933,-0.277646019,2.117699053
1705916.046,-9.248348724,0.00176409,2.088204508
1705925.812,-9.288112396,0.079159824,1.957991207
1705935.577,-9.172220232,0.36017492,2.008746017
1705945.343,-9.40359331,0.518967226,1.948361285
1705955.109,-9.483568189,0.712863623,1.643181131
1705964.874,-9.481999798,0.756000403,1.800020159
1705974.64,-9.407217945,0.871717956,1.585897824
1705984.406,-9.175260248,0.914094888,1.704744404
1705994.171,-9.215515806,1.07050685,1.525342514
1706003.937,-9.252997449,0.91246664,1.623332015
1706013.702,-9.137286719,0.99311887,1.655943492
1706023.468,-9.484326177,1.031347646,1.56738232
1706033.234,-9.486116319,1.187767362,1.388368108
1706042.999,-9.563317283,1.067211587,1.360579346
1706052.765,-9.756765214,0.98493111,1.246555481
1706062.531,-10.1033531,1.344063021,1.203151047
1706072.296,-10.52553325,1.225856575,1.292828732
1706082.062,-10.6034035,1.343962225,1.198111233
1706091.827,-10.72171075,1.41811697,0.905848511
1706101.593,-11.0286277,1.419667682,0.983384119
1706111.359,-10.87534662,1.578537523,0.926876168
1706121.124,-11.14522947,1.777233374,0.861668721
1706130.89,-11.10730432,1.536160592,0.808029588
1706140.656,-11.02894218,1.339038714,0.951935676
1706150.421,-10.95237019,1.298336551,0.916827553
1706160.187,-10.72086002,1.379818412,0.99092058
1706169.952,-10.37923938,1.490752018,0.537600893
1706179.718,-10.26017414,1.098113249,0.905662425
1706189.484,-10.5323874,1.212148279,0.607413955
1706199.249,-12.8044797,2.126425221,0.321261039
1706209.015,-15.65287587,3.521940561,0.09702806
1706218.781,-10.26774193,1.362977677,0.148883875
1706228.546,-10.34499128,0.922325138,0.116256891
1706238.312,-12.03889279,1.839137494,-0.043125305
1706248.077,-12.57875121,1.956343731,-0.182813457
1706257.843,-12.69965497,2.185305452,-0.734727424
1706267.609,-10.46818109,1.026714739,-0.664263063
1706277.374,-9.353006598,0.226294496,-0.685275213
1706287.14,-8.699501756,-0.134388128,-0.719406387
1706296.906,-8.509194638,-0.498389275,-0.919463764
1706306.671,-7.932261791,-0.818369736,-0.918486815
1706316.437,-7.893977809,-1.018724849,-0.936242469
1706326.202,-8.357623068,-0.982938444,-1.146922224
1706335.968,-8.975125957,-0.58717499,-1.358749506
1706345.734,-9.439170369,-0.192186892,-1.609344592
1706355.499,-9.438815566,-0.511477286,-1.573864297
1706365.265,-9.208829445,-0.513043505,-1.652175261
1706375.031,-9.173230676,-0.478769045,-1.938452234
1706384.796,-9.479567041,-0.636057159,-1.802857963
1706394.562,-9.479877494,-0.356678064,-1.83390322
1706404.327,-9.825751746,-0.276118878,-1.80594388
1706414.093,-9.594378668,-0.434911183,-1.745559148
1706423.859,-9.594241585,-0.194637017,-1.731850853
1706433.624,-9.592451443,-0.351056733,-1.55283664
1706443.39,-9.784193901,-0.149926264,-1.496313182
1706453.156,-9.896949284,-0.344667799,-1.233389934
1706462.921,-9.779670164,-0.220878789,-1.043939429
1706472.687,-9.739277523,-0.137016585,-0.850829243
1706482.452,-9.472212944,0.018651035,-1.067448226
1706492.218,-9.503247656,-0.486495313,-0.324765649
1706501.984,-9.42676033,-0.087366813,-0.36834066
1706511.749,-9.694139394,-0.323663402,-0.183170121
1706521.515,-9.690732479,-0.116849573,0.157521342
1706531.281,-9.461282594,0.000511735,0.025586751
1706541.046,-9.691268715,0.002077954,0.103897715
1706550.812,-9.651053476,0.245585355,0.279267754
1706560.577,-9.534717809,0.127487459,0.374372931
1706570.343,-9.381888302,-0.034545835,0.272708241
1706580.109,-9.305941244,0.123502128,0.175106418
1706589.874,-9.420845603,0.044462639,0.223131973
1706599.64,-9.34373334,0.244841013,0.242050662
1706609.406,-9.45948842,0.204100083,0.205004148
1706619.171,-9.498893257,0.322213487,0.110674327
1706628.937,-9.538165042,0.320592992,0.029649617
1706638.702,-9.347986943,0.436333806,-0.183309685
1706648.468,-9.34687012,0.158567452,-0.071627395
1706658.234,-9.156244485,0.235203337,-0.239833143
1706667.999,-9.078551635,0.276742884,-0.162855792
1706677.765,-9.386633792,0.235963186,-0.201840695
1706687.531,-9.348748963,0.394809766,-0.259511681
1706697.296,-9.732508044,0.316522373,-0.173881355
1706707.062,-9.772763602,0.472934335,-0.353283245
1706716.827,-10.15482124,0.318049824,-0.097508781
1706726.593,-10.04036442,0.436194242,-0.19028789
1706736.359,-9.810781481,0.433821653,-0.30891737
1706746.124,-9.964598792,0.393879339,-0.306033046
1706755.89,-9.809438875,0.316506866,-0.174656711
1706765.656,-9.768421297,0.201618943,0.080947175
1706775.421,-10.18965799,0.325299404,0.264970188
1706785.187,-11.53916494,1.038593194,-0.070340304
1706794.952,-17.42945361,3.427246633,-0.637668349
1706804.718,-14.03761873,1.601685624,0.084281206
1706814.484,-9.11523094,-0.239692649,0.015367558
1706824.249,-11.6508035,0.566085305,0.304265234
1706834.015,-14.57550557,1.762835012,0.141750599
1706843.781,-15.23196576,2.237606941,-0.119652951
1706853.546,-12.53429446,0.928334147,0.416707373
1706863.312,-10.60852395,0.133721322,0.686066076
1706873.077,-10.29806704,0.219250541,0.962527041
1706882.843,-9.949995425,0.343086072,1.154303614
1706892.609,-9.140072728,0.227546851,1.377342545
1706902.374,-8.482713436,0.034573128,1.728656385
1706912.14,-7.515703597,-0.074484117,2.275794158
1706921.906,-7.32171943,-0.111131167,2.443441651
1706931.671,-8.282407326,0.490569964,2.528498213
1706941.437,-9.167329596,1.049956192,2.497809619
1706951.202,-10.09094307,1.4488831,2.444154978
1706960.968,-9.974518698,1.250962605,2.548130229
1706970.734,-9.360237259,1.208756251,2.437812565
1706980.499,-9.320070402,1.132166888,2.608344382
1706990.265,-9.706559047,1.328420367,2.421018353
1707000.031,-10.01123429,1.494454498,2.722724911
1707009.796,-10.087137,1.296495235,2.824761772
1707019.562,-9.855630868,1.017969032,2.898451614
1707029.327,-9.817927473,0.976452746,2.822637296
1707039.093,-9.780627263,0.934130089,2.706504462
1707048.859,-10.01334698,0.850229118,2.511455886
1707058.624,-10.01294783,0.491027424,2.551371217
1707068.39,-9.93633148,0.410413963,2.520698131
1707078.156,-9.860477154,0.288276461,2.413823048
1707087.921,-9.784401076,-0.033417537,2.32912315
1707097.687,-9.515098819,-0.073274561,2.336271933
1707107.452,-9.206169974,-0.430801486,2.459925721
1707117.218,-9.321344467,-0.630381243,2.480937871
1707126.984,-9.398456731,-0.830759616,2.462019182
1707136.749,-9.476016531,-0.992033061,2.398346941
1707146.515,-9.439119506,-1.035162088,2.241895591
1707156.281,-9.440998348,-0.798919774,2.054011305
1707166.046,-9.710256255,-0.798974049,2.051297558
1707175.812,-9.862726927,-0.596223085,2.188845727
1707185.577,-9.59113861,-0.51150799,2.424600498
1707195.343,-9.440635482,-0.398194041,2.090297969
1707205.109,-9.249336528,-0.200211517,1.989424143
1707214.874,-8.786945175,-0.198505734,2.074713312
1707224.64,-8.940851186,-0.158625449,2.068727563
1707234.406,-9.326174626,0.079958441,1.997922046
1707244.171,-9.479141216,0.001717569,2.08587844
1707253.937,-9.74830639,0.281848759,2.092437952
1707263.702,-9.557233219,0.319379715,1.968985757
1707273.468,-9.365131927,0.158966916,1.948345778
1707283.234,-9.443449714,0.316177495,1.808874726
1707292.999,-9.671242508,0.162130368,2.106518419
1707302.765,-9.671198158,0.122219069,2.110953455
1707312.531,-10.13488374,0.557924837,1.896241849
1707322.296,-10.63480108,0.438090143,1.904507145
1707332.062,-10.63668396,0.314324393,1.716219674
1707341.827,-10.90513549,0.315882859,1.79414296
1707351.593,-11.09594256,0.038884108,1.944205376
1707361.359,-11.02089461,-0.084866135,1.756693261
1707371.124,-10.75168508,-0.404908624,1.754568786
1707380.89,-10.79136408,-0.767343553,1.632822374
1707390.656,-13.06153319,-0.129220224,1.538988781
1707400.421,-18.33436332,1.90358106,1.17905298
1707410.187,-10.09912772,-1.367486218,1.625689098
1707419.952,-9.487043645,-1.61408729,1.295635521
1707429.718,-13.25448923,-0.29051693,1.474153505
1707439.484,-12.60263745,-0.254505672,1.274716414
1707449.249,-12.37431648,-0.9394022,1.029889977
1707459.015,-12.26187559,-0.825289634,0.735518287
1707468.781,-11.72273887,-1.383939274,0.803036294
1707478.546,-10.26374637,-1.869031193,0.548440371
1707488.312,-9.881870159,-1.914509549,0.274522574
1707498.077,-9.497844975,-2.075689951,0.21550247
1707507.843,-8.693256418,-2.481897451,-0.09487257
1707517.609,-7.848630023,-2.484952354,-0.247617718
1707527.374,-7.617885914,-2.805002597,-0.250129872
1707537.14,-7.543999132,-2.611075186,-0.553759314
1707546.906,-8.160514216,-2.013336125,-0.666806231
1707556.671,-8.891800609,-1.61437045,-0.718522481
1707566.437,-9.276583781,-1.134706024,-0.735301187
1707576.202,-9.086405682,-1.01896521,-0.948260489
1707585.968,-8.971057818,-1.339038714,-0.951935676
1707595.734,-9.16154637,-1.175400433,-0.770021632
1707605.499,-9.471777504,-1.100478085,-1.023904228
1707615.265,-9.776904313,-1.255347088,-0.767354408
1707625.031,-9.663568344,-1.21944438,-0.972218992
1707634.796,-9.895167206,-1.221103642,-1.055182092
1707644.562,-10.00957968,-1.379159359,-0.957967947
1707654.327,-10.00980143,-1.179602863,-0.980143131
1707664.093,-9.931527994,-1.296902142,-0.845107115
1707673.859,-10.04441643,-1.37190978,-0.595488978
1707683.624,-10.00496724,-1.529934482,-0.496724121
1707693.39,-9.734769913,-1.648001365,-0.400068231
1707703.156,-9.772025773,-1.645590007,-0.279500361
1707712.921,-9.578130306,-1.602414459,-0.120722942
1707722.687,-9.651029285,-1.594366263,0.281686865
1707732.452,-9.76960263,-1.280743722,-0.037186078
1707742.218,-9.726702178,-1.271865894,0.406705279
1707751.984,-10.03406667,-1.231210253,0.439487335
1707761.749,-9.842364526,-1.03242136,0.378932025
1707771.515,-10.03571972,-0.834516372,0.274181418
1707781.281,-9.691950098,-0.839284812,0.035759423
1707791.046,-9.343568034,-0.994828375,0.258581253
1707800.812,-9.306263792,-0.677142968,0.142851605
1707810.577,-9.037679204,-0.798435331,0.078233429
1707820.343,-9.037993689,-0.8790643,0.046784986
1707830.109,-8.923802967,-0.521452087,-0.072604344
1707839.874,-9.4243009,-0.482447954,-0.122397711
1707849.64,-9.423627581,-0.361101316,-0.055065789
1707859.406,-9.309170757,-0.242956898,-0.147844898
1707869.171,-9.307247563,-0.519110512,0.044474425
1707878.937,-8.883232925,-0.59723508,0.138245989
1707888.702,-8.99854047,-0.677080939,0.145953029
1707898.468,-9.112638459,-0.754507688,0.274615617
1707908.234,-9.422555108,-0.598956371,0.052181464
1707917.999,-9.922379723,-0.4386056,0.069720019
1707927.765,-10.26802819,-0.197594845,0.120257728
1707937.531,-10.72987928,0.041779907,0.088995371
1707947.296,-10.77054205,-0.162622564,-0.131128221
1707957.062,-10.69414746,-0.04367953,-0.183976491
1707966.827,-10.54001566,0.076891753,-0.155412373
1707976.593,-10.38525893,-0.001287091,-0.064354555
1707986.359,-10.3461202,0.120067301,0.003365045
1707996.124,-11.03997333,0.356976421,-0.151178929
1708005.89,-14.73810022,1.985338016,-0.733099176
1708015.656,-16.57838834,2.357069464,-0.146526792
1708025.421,-10.57973498,0.114376187,-0.281190637
1708035.187,-11.73208067,0.477377125,-0.131143728
1708044.952,-13.50071969,1.238560629,-0.071968552
1708054.718,-13.96238934,1.678298248,-0.085087576
1708064.484,-12.88393044,1.121369899,0.068494956
1708074.249,-11.06916952,0.015507122,0.775356082
1708084.015,-9.79771425,-0.780043885,0.997805742
1708093.781,-9.099333349,-0.727897467,1.605126654
1708103.546,-8.750056213,-0.961650888,1.917455591
1708113.312,-8.592162701,-0.953556171,2.322191466
1708123.077,-7.971877835,-0.94375567,2.81221651
1708132.843,-7.740456375,-0.782451211,2.877439464
1708142.609,-8.044950183,-0.416054213,3.197289355
1708152.374,-9.391590488,0.26297287,3.148643515
1708162.14,-10.12309863,0.861495042,3.07475208
1708171.906,-10.46995666,1.100086685,3.00433424
1708181.671,-9.66232002,0.859975344,2.998767184
1708191.437,-9.276996581,0.621391454,3.069572701
1708201.202,-9.585792375,0.85918448,2.959224024
1708210.968,-9.73831143,0.741838679,3.091933971
1708220.734,-9.704143968,0.973250525,2.662526265
1708230.499,-9.550060555,0.773725043,2.686252161
1708240.265,-9.625515728,0.536660851,2.833042575
1708250.031,-9.282729874,0.689924868,2.4962434
1708259.796,-9.745480062,0.647501415,2.375070751
1708269.562,-9.976316904,0.687366193,2.368309646
1708279.327,-10.01549999,0.6059231,2.296155009
1708289.093,-10.05575958,0.402326999,2.116349934
1708298.859,-9.863122049,0.122986672,2.149333581
1708308.624,-9.710111109,0.161316244,2.065812224
1708318.39,-9.634482566,-0.121272825,1.936358773
1708328.156,-9.558539539,-0.323232925,1.838353764
1708337.921,-9.327392245,-0.642476797,1.876160127
1708347.687,-9.32775108,-0.683194467,1.840276647
1708357.452,-9.290136385,-0.644888155,1.755592256
1708367.218,-9.365188373,-0.881145976,1.942701186
1708376.984,-9.250417064,-0.68237259,1.881370519
1708386.749,-9.173486234,-0.682357082,1.882145875
1708396.515,-9.135065169,-0.64243803,1.878098517
1708406.281,-9.059339862,-0.28483357,1.758321509
1708416.046,-8.906284571,-0.286415296,1.679235189
1708425.812,-9.098474564,-0.046179898,1.691005094
1708435.577,-9.251304071,0.115853396,1.792669784
1708445.343,-9.020064044,0.076794988,1.839749405
1708455.109,-9.137024649,0.393643011,1.682150528
1708464.874,-9.251211339,0.396038861,1.801943042
1708474.64,-9.177147155,0.430321075,1.516053748
1708484.406,-9.328678406,0.514950881,1.74754406
1708494.171,-9.635639708,0.556412893,1.820644631
1708503.937,-9.752559993,0.473341552,1.667077605
1708513.702,-9.984199173,0.871601653,1.580082653
1708523.468,-10.3669261,0.955378568,1.76892838
1708533.234,-10.79134392,1.032696766,1.634838299
1708542.999,-11.02177758,1.073367914,1.668395711
1708552.765,-11.25180805,1.114845433,1.742271638
1708562.531,-11.21446349,1.032611477,1.630573841
1708572.296,-11.17586503,0.912885333,1.644266629
1708582.062,-11.02334597,1.030231134,1.511556682
1708591.827,-11.13981872,0.908054864,1.40274321
1708601.593,-11.21647942,1.028579625,1.42898126
1708611.359,-14.18403759,2.176540206,0.827010304
1708621.124,-16.75883759,2.940786366,1.039318307
1708630.89,-10.33702031,0.658267079,0.913353958
1708640.656,-11.79919394,1.096996736,0.849836788
1708650.421,-13.34107232,1.850163057,0.508152869
1708660.187,-13.49847394,1.763052112,0.152605584
1708669.952,-13.46144387,1.600189187,0.009459344
1708679.718,-11.5408301,0.355262884,-0.236855776
1708689.484,-10.27241888,-0.246376218,-0.318810914
1708699.249,-9.50571515,-0.811430299,-0.571514968
1708709.015,-9.083006831,-1.532167508,-0.608375396
1708718.781,-8.123883293,-1.816997356,-0.849867802
1708728.546,-7.391076892,-2.492923015,-0.646150745
1708738.312,-7.010454591,-2.500909183,-1.045459127
1708748.077,-7.78105712,-2.063652703,-1.182635125
1708757.843,-8.66665271,-1.625613113,-1.280655641
1708767.609,-8.822570616,-1.229756616,-1.487830786
1708777.374,-9.053899343,-1.11087561,-1.543780481
1708787.14,-8.977996635,-0.912916347,-1.645817342
1708796.906,-9.209099579,-0.633583773,-1.679188667
1708806.671,-9.554437595,-0.671952114,-1.5976057
1708816.437,-9.479385608,-0.435694293,-1.78471463
1708826.202,-9.556497872,-0.636072666,-1.803633319
1708835.968,-9.360183294,-0.588058896,-1.402944802
1708845.734,-9.399007544,-0.628784319,-1.43921596
1708855.499,-9.746583238,-0.471628015,-1.581400758
1708865.265,-10.01507913,-0.43015825,-1.507912509
1708875.031,-9.898606375,-0.307981981,-1.399099036
1708884.796,-10.01113597,-0.342271948,-1.11359742
1708894.562,-9.932100517,-0.418047188,-0.902359409
1708904.327,-9.968239554,-0.693402185,-0.670109248
1708914.093,-9.660383181,-0.813074054,-0.653702713
1708923.859,-9.502308235,-0.60461647,-0.230823506
1708933.624,-9.500022175,-0.48004435,-0.002217518
1708943.39,-9.769368783,-0.400276027,-0.013801338
1708953.156,-9.767441558,-0.316421577,0.17892117
1708962.921,-9.72897211,0.043594241,0.179712033
1708972.687,-9.57676754,0.080311073,0.015553643
1708982.452,-9.498985989,0.042028021,0.101401068
1708992.218,-9.077971048,0.117904057,-0.104797128
1709001.984,-9.038787963,0.19934715,-0.032642491
1709011.749,-9.000455599,0.319088802,-0.045559923
1709021.515,-9.192911695,0.798791995,-0.060400239
1709031.281,-9.311493103,0.392398409,-0.380079552
1709041.046,-9.079358005,0.275130144,-0.243492824
1709050.812,-9.236263714,0.469011033,-0.549448334
1709060.577,-9.004979337,0.390041326,-0.497933676
1709070.343,-9.083345506,0.227155141,-0.64224295
1709080.109,-9.083164073,0.427518008,-0.624099618
1709089.874,-8.738455025,0.304628411,-0.76857947
1709099.64,-9.006188892,0.387622216,-0.618889225
1709109.406,-9.584020842,0.425804471,-0.709776465
1709119.171,-10.08550255,0.62284106,-0.857947012
1709128.937,-10.23743698,0.706664496,-0.666775217
1709138.702,-10.58528281,0.743280532,-0.835973421
1709148.468,-10.73856389,0.584410691,-0.77946547
1709158.234,-10.73703985,0.66745877,-0.627061478
1709167.999,-10.42801827,0.590117311,-0.494134431
1709177.765,-10.9284275,0.549298845,-0.535057725
1709187.531,-12.50773914,1.464521722,-0.77391392
1709197.296,-18.0858251,3.822195963,-0.890201825
1709207.062,-13.19706853,1.630478317,-0.476084142
1709216.827,-10.6184665,0.353836229,-0.308188536
1709226.593,-12.69370799,1.197199414,-0.140029308
1709236.359,-13.53949555,1.51793197,-0.103401487
1709246.124,-13.8034677,1.48844921,0.422460515
1709255.89,-12.03321594,0.730491188,0.524559404
1709265.656,-10.37361091,0.062008948,1.10044738
1709275.421,-9.560781249,-0.487716344,1.614182813
1709285.187,-8.863924387,-0.518618005,2.069099734
1709294.952,-8.245788498,-0.393115458,2.344227086
1709304.718,-7.742649702,-0.626837865,2.658106736
1709314.484,-7.703244865,-0.744951269,2.752436556
1709324.249,-8.394271669,-0.142389492,2.880525381
1709334.015,-9.394187,0.417779845,2.88899227
1709343.781,-9.858453165,1.01232444,2.616222
1709353.546,-10.28161708,1.05215045,2.607522505
1709363.312,-9.663215092,0.938185202,2.909260078
1709373.077,-9.474964217,0.970071565,2.503578268
1709382.843,-9.667468695,1.129677995,2.483899731
1709392.609,-9.74623805,0.965985439,2.299271941
1709402.374,-9.437664007,0.927748909,2.387445434
1709412.14,-9.399871911,0.806410024,2.32050119
1709421.906,-9.515090755,0.646741566,2.337078303
1709431.671,-9.59229172,0.526185791,2.309289541
1709441.437,-9.556826002,0.680194149,2.009707458
1709451.202,-9.78734836,0.800687896,2.034394796
1709460.968,-9.866073364,0.597084041,1.854202042
1709470.734,-9.904538779,0.597076287,1.853814364
1709480.499,-9.944306483,0.314463958,1.723197879
1709490.265,-9.710425593,0.080687276,2.034363782
1709500.031,-9.520295876,-0.123668675,1.816566258
1709509.796,-9.328642119,-0.244976545,1.751172726
1709519.562,-9.212935421,-0.52433238,1.783381018
1709529.327,-9.253328061,-0.608194583,1.590270832
1709539.093,-9.33003714,-0.807766587,1.61167066
1709548.859,-9.521690897,-0.686458716,1.677064192
1709558.624,-9.600141735,-0.409514239,1.524288029
1709568.39,-9.521908617,-0.126894156,1.655292193
1709578.156,-9.330658045,-0.249008397,1.549580145
1709587.921,-9.330746745,-0.169185799,1.540710071
1709597.687,-8.946181294,-0.089285664,1.535716778
1709607.452,-8.944209718,-0.045342514,1.732874323
1709617.218,-9.329891993,0.152523707,1.626185326
1709626.984,-9.446360711,0.390355501,1.517775038
1709636.749,-9.599460352,0.431848526,1.592426322
1709646.515,-9.29021299,0.514958635,1.747931738
1709656.281,-9.138455956,0.590780396,1.539019795
1709666.046,-9.331545052,0.549217588,1.460879409
1709675.812,-9.67710482,0.710405744,1.520287192
1709685.577,-10.17903809,0.586539198,1.326959906
1709695.343,-10.87123413,0.786762501,1.338125034
1709705.109,-11.14098393,0.865724454,1.286222698
1709714.874,-11.10072837,0.709312492,1.465624588
1709724.64,-11.33317795,0.745951788,1.297589418
1709734.406,-11.33407705,0.464153583,1.207679127
1709744.171,-10.87231467,0.304601428,1.23007141
1709753.937,-10.95081389,0.261449141,1.072457026
1709763.702,-11.48919665,0.141606693,1.080334644
1709773.468,-15.57005048,1.853745202,0.687260124
1709783.234,-16.64470734,1.898277624,0.9138812
1709792.999,-9.915707008,-0.625260171,0.736991463
1709802.765,-11.02976871,-0.462614346,0.869282718
1709812.531,-11.95597869,0.091119537,0.555976832
1709822.296,-11.84273546,-0.15316322,0.34183899
1709832.062,-12.8449812,0.322345297,0.117264854
1709841.827,-11.69107115,-0.357526924,0.123653788
1709851.593,-9.731673451,-1.161808441,-0.090422026
1709861.359,-8.734128849,-1.406719236,-0.33596179
1709871.124,-8.120742481,-1.370715731,-0.53578656
1709880.89,-7.701158847,-1.09770231,-0.885115489
1709890.656,-8.353591217,-0.974874741,-0.743737061
1709900.421,-9.128136897,-0.625504563,-1.275228149
1709910.187,-9.628142945,-0.665516659,-1.275832926
1709919.952,-9.362824157,-0.393340622,-1.667031084
1709929.718,-9.477414032,-0.391751142,-1.587557086
1709939.484,-9.438815566,-0.511477286,-1.573864297
1709949.249,-9.437920495,-0.589687144,-1.484357191
1709959.015,-9.245549068,-0.629559675,-1.477983764
1709968.781,-9.133378304,-0.635987377,-1.79936886
1709978.546,-9.131229327,-0.751689423,-1.584471168
1709988.312,-9.055512084,-1.114101091,-1.705054546
1709998.077,-9.12979802,-0.948826809,-1.441340436
1710007.843,-9.436848022,-0.827542199,-1.377109938
1710017.609,-9.626441503,-0.742113776,-1.105688788
1710027.374,-9.663741713,-0.699791119,-0.989555954
1710037.14,-9.89265133,-0.576071891,-0.803594551
1710046.906,-10.23986819,-0.378197917,-0.90989587
1710056.671,-9.966356679,-0.569636436,-0.481821777
1710066.437,-9.889647601,-0.370064432,-0.503221605
1710076.202,-9.733903065,-0.246267668,-0.313383421
1710085.968,-9.384307413,-0.039384057,0.030797144
1710095.734,-9.50059873,0.03880254,-0.059872997
1710105.499,-9.463161437,0.236754049,-0.162297535
1710115.265,-9.769227668,0.200006203,0.000310142
1710125.031,-9.654452327,0.758787653,-0.060617339
1710134.796,-9.652932319,0.481827669,0.091383468
1710144.562,-9.384210649,0.600809472,0.040473587
1710154.327,-9.075370504,0.323105146,0.155257302
1710164.093,-8.922492615,0.481168617,0.058430834
1710173.859,-8.69380475,0.557005885,-0.149705752
1710183.624,-8.883668365,0.52189404,0.094701992
1710193.39,-8.883176479,0.442877812,0.143890582
1710203.156,-9.153865693,0.639960922,-0.001953897
1710212.921,-9.308533724,0.638317167,-0.084141642
1710222.687,-8.961538617,0.63999969,-1.55E-05
1710232.452,-9.155925969,0.67584037,-0.207981516
1710242.218,-9.385690338,0.477850093,-0.107495367
1710251.984,-9.19233514,0.279945105,-0.002744761
1710261.749,-9.501179317,0.197641367,-0.11793166
1710271.515,-10.03982818,0.317266715,-0.136664263
1710281.281,-10.6566134,0.794465508,-0.276724586
1710291.046,-10.8868253,0.63558016,-0.220991991
1710300.812,-10.73063727,0.360263931,0.013196561
1710310.577,-10.61779318,0.475182868,-0.240856613
1710320.343,-10.46258891,0.357899095,-0.105045242
1710330.109,-10.77241686,0.433627814,-0.318609321
1710339.874,-14.58231134,2.069223481,-0.538825956
1710349.64,-17.92529475,3.275564343,-0.221782854
1710359.406,-10.00091926,-0.081838524,-0.091926217
1710369.171,-10.07749126,-0.041136362,-0.056818094
1710378.937,-13.57612244,1.681601265,0.080063269
1710388.702,-14.88537384,2.238483093,-0.075845332
1710398.468,-13.15215216,1.643387996,0.169399797
1710408.234,-11.68424926,0.776116862,0.805843083
1710417.999,-10.7561564,0.346148729,1.30743644
1710427.765,-9.482011894,-0.324023788,1.798810604
1710437.531,-8.631204671,-0.434717034,2.26414831
1710447.296,-8.626366449,-0.42504059,2.747970505
1710457.062,-8.08435502,-0.297940809,3.102959534
1710466.827,-7.774345638,-0.173306661,3.334666946
1710476.593,-8.23194312,-0.125424701,3.728764935
1710486.359,-9.079472448,0.671824335,3.591216766
1710496.124,-9.73297729,1.032506959,3.625347941
1710505.89,-10.35007699,1.429076784,3.453839176
1710515.656,-10.08064168,1.269485861,3.474293069
1710525.421,-9.736065688,1.266330162,3.316508106
1710535.187,-9.584219953,1.262329325,3.116466237
1710544.952,-9.853969746,1.341291278,3.064563901
1710554.718,-9.700285486,1.500967489,3.048374466
1710564.484,-9.547722081,1.578401991,2.920099556
1710574.249,-9.23910772,1.140246098,3.012304901
1710584.015,-9.239196421,1.220068697,3.003434827
1710593.781,-9.317066673,1.338174347,2.908717328
1710603.546,-9.199029564,1.143479333,3.173966644
1710613.312,-9.54987509,1.334095974,2.704798679
1710623.077,-9.93269475,1.137687423,2.884371147
1710632.843,-9.932380266,1.218316392,2.91581959
1710642.609,-9.781611035,1.092162546,2.608127282
1710652.374,-9.78022811,0.574928396,2.746419793
1710662.14,-9.587767982,0.455233266,2.761663294
1710671.906,-9.745439743,0.247582052,2.379102603
1710681.671,-9.822148822,0.048010049,2.400502431
1710691.437,-9.783014119,-0.190643623,2.467818846
1710701.202,-9.707873431,-0.0342084,2.28957999
1710710.968,-9.591493413,-0.192217596,2.389120203
1710720.734,-9.284036194,0.047312228,2.365611407
1710730.499,-9.17038574,0.163843905,2.192195266
1710740.265,-8.861989098,0.285252572,2.262628612
1710750.031,-9.096361874,0.598045482,1.902274119
1710759.796,-9.019608445,0.757706187,1.885309328
1710769.562,-9.019963248,1.076996581,1.849829034
1710779.327,-9.13508936,1.197513588,1.875679406
1710789.093,-9.13432734,1.239037628,1.951881402
1710798.859,-8.866545091,1.476140588,1.807029378
1710808.624,-9.095366007,1.520037217,2.001860855
1710818.39,-9.057751312,1.558343529,1.917176463
1710828.156,-9.288721205,1.717942205,1.897110248
1710837.921,-9.482616672,1.674766657,1.738332829
1710847.687,-9.481584518,1.836830965,1.841548231
1710857.452,-9.749140983,1.760179572,2.008978623
1710867.218,-10.17360316,1.87740907,1.870453506
1710876.984,-10.05757794,2.038690269,1.934513425
1710886.749,-10.32764222,2.037023253,1.851162646
1710896.515,-10.55749529,1.918855574,1.942778721
1710906.281,-10.52073132,1.995460445,1.77302226
1710916.046,-10.90296636,2.000221132,2.011056578
1710925.812,-10.90404286,1.878068123,1.903406139
1710935.577,-11.09757949,1.875610244,1.7805122
1710945.343,-10.8666983,1.795834167,1.791708342
1710955.109,-10.55888628,1.716073597,1.80367984
1710964.874,-10.86795624,1.473318291,1.665914571
1710974.64,-12.29623254,2.022919526,1.14597629
1710984.406,-15.91402573,3.498102394,0.905119676
1710994.171,-12.56629682,2.02125251,1.062625511
1711003.937,-9.837054577,1.098198538,0.909926884
1711013.702,-12.14564475,1.696402813,0.82014065
1711023.468,-11.88180565,1.845619471,0.280973537
1711033.234,-12.2692821,1.839897343,-0.005132857
1711042.999,-11.80935824,1.51666814,-0.166593008
1711052.765,-9.925818892,0.474516062,-0.274196925
1711062.531,-9.004088298,-0.048176595,-0.408829755
1711072.296,-8.15991347,-0.372134633,-0.606731642
1711082.062,-7.7403379,-0.819137339,-0.956866941
1711091.827,-7.050024734,-1.143126391,-1.15631954
1711101.593,-7.049847332,-1.302771588,-1.138579393
1711111.359,-7.552627294,-1.028331511,-1.416575562
1711121.124,-8.129693192,-0.588617152,-1.430857621
1711130.89,-9.092937281,-0.232028409,-1.601420452
1711140.656,-9.478305072,0.04646678,-1.676661007
1711150.421,-9.555098819,0.286725439,-1.663728067
1711160.187,-9.478841308,0.165394307,-1.730284633
1711169.952,-9.632344134,0.206080963,-1.695951866
1711179.718,-9.865644437,0.281018818,-1.949059105
1711189.484,-9.826239601,0.162905414,-1.854729284
1711199.249,-9.9387692,0.128615447,-1.569227668
1711209.015,-10.09222768,0.129390803,-1.530459864
1711218.781,-9.865418654,0.441470385,-1.926480736
1711228.546,-10.12755228,0.575664674,-1.2167663
1711238.312,-9.936208974,0.733735898,-1.313205089
1711248.077,-9.663592535,0.620507238,-0.974638103
1711257.843,-9.851440224,0.589427244,-0.528637777
1711267.609,-9.582000884,0.789844386,-0.507780698
1711277.374,-9.654859544,0.397973219,-0.10133904
1711287.14,-9.498082855,0.683834291,0.191714545
1711296.906,-9.68884154,0.726932304,0.346615183
1711306.671,-9.609491599,0.731786033,0.589301637
1711316.437,-9.60724989,0.896269452,0.813472587
1711326.202,-9.917166539,1.051820769,0.591038434
1711335.968,-9.723452506,0.89463345,0.731672521
1711345.734,-9.648178766,0.931334775,0.566738775
1711355.499,-9.569546494,0.854753165,0.73765827
1711365.265,-9.376413048,0.856404674,0.820233692
1711375.031,-9.342830205,0.886647283,0.332364138
1711384.796,-9.185251177,0.814113031,0.70565157
1711394.562,-9.419043366,0.968067115,0.403355741
1711404.327,-9.266258209,0.84594512,0.297256015
1711414.093,-9.421236693,1.12368046,0.184023013
1711423.859,-9.575993425,1.201859304,0.092965194
1711433.624,-9.65328309,1.161126127,0.056306359
1711443.39,-9.190444201,1.123726982,0.186349081
1711453.156,-9.037388911,1.122145255,0.10726276
1711462.921,-9.153502826,1.040686655,0.034332767
1711472.687,-8.923786839,0.918580168,-0.070991603
1711482.452,-9.116738852,1.117291526,-0.135423693
1711492.218,-9.692913711,1.118787963,-0.060601831
1711501.984,-10.11544866,1.319871911,-0.006404441
1711511.749,-10.38569034,1.477850093,-0.107495367
1711521.515,-10.34704752,1.318212649,-0.089367542
1711531.281,-10.2326794,1.516179666,-0.191016724
1711541.046,-10.27020539,1.398050755,-0.09746226
1711550.812,-10.23120374,1.279130981,-0.043450955
1711560.577,-10.38470657,1.319817636,-0.009118188
1711570.343,-11.73013732,2.00126383,0.063191521
1711580.109,-16.35084553,4.190616641,-0.469167965
1711589.874,-13.45888364,2.205309638,0.265481923
1711599.64,-10.19018616,1.164243059,0.212152931
1711609.406,-12.11036046,1.650048305,0.502415234
1711619.171,-13.3019739,2.371436812,0.571840618
1711628.937,-13.60897955,2.452810123,0.640506152
1711638.702,-11.9105543,1.465045242,1.252262101
1711648.468,-10.25287649,0.712708551,1.63542757
1711658.234,-9.285781985,0.163820645,2.191032232
1711667.999,-9.165233033,0.254149318,2.707465904
1711677.765,-9.161289882,0.34203562,3.101780993
1711687.531,-8.580946089,0.588877052,3.443852589
1711697.296,-8.26865468,0.478075256,3.903762803
1711707.062,-8.308055484,0.956196723,3.809836167
1711716.827,-9.037640436,1.278565281,3.928264055
1711726.593,-9.922788491,1.677499942,3.874997092
1711736.359,-10.03966039,1.914525366,3.726268289
1711746.124,-9.886649454,1.952854939,3.642746932
1711755.89,-9.540460717,1.952924721,3.646236034
1711765.656,-9.235962876,1.946535787,3.326789328
1711775.421,-9.506027153,1.944868771,3.243438549
1711785.187,-9.429854311,2.263368302,3.168415095
1711794.952,-9.470605786,2.138788429,2.939421429
1711804.718,-9.31795368,2.136400332,2.820016593
1711814.484,-9.1284489,2.130794507,2.539725369
1711824.249,-9.165394307,1.85382677,2.691338497
1711834.015,-9.167051398,1.890512588,2.525629395
1711843.781,-9.358350352,1.692530064,2.626503222
1711853.546,-9.550588728,1.612668698,2.633434905
1711863.312,-9.551620882,1.45060439,2.530219503
1711873.077,-9.551576532,1.410693091,2.53465454
1711882.843,-9.551040295,1.291765563,2.588278167
1711892.609,-9.39762617,1.330901507,2.545075326
1711902.374,-9.166478875,1.011657634,2.582881688
1711912.14,-8.935238848,0.972599226,2.62996131
1711921.906,-8.975454087,0.729091825,2.454591271
1711931.671,-9.205932094,0.809674273,2.483713645
1711941.437,-9.205750661,1.01003714,2.501856978
1711951.202,-9.130392253,0.606907802,2.34539012
1711960.968,-9.092773526,1.005222178,2.261108914
1711970.734,-8.976615261,1.046769479,2.338473944
1711980.499,-8.900357749,0.925438348,2.271917378
1711990.265,-9.209915564,1.121707334,2.085366705
1712000.061,-9.285189303,1.085006009,2.25030045
1712009.796,-9.321146907,1.010013879,2.500693944
1712019.562,-9.322529832,1.527248029,2.362401433
1712029.327,-9.245687702,1.607086134,2.354306715
1712039.093,-9.321413009,1.249481674,2.474083723
1712048.859,-9.169607592,1.6454002,2.270010002
1712058.624,-9.283302397,1.568779822,2.438991107
1712068.39,-9.093438782,1.603891667,2.194583362
1712078.156,-9.476839028,1.566321943,2.316097168
1712087.921,-9.668940321,1.726734743,2.336737147
1712097.687,-10.16957131,1.885472773,2.273638669
1712107.452,-10.67051677,1.963581835,2.179091748
1712117.218,-10.78376001,2.207864592,2.393229591
1712126.984,-10.94017383,2.322729253,2.13646267
1712136.749,-11.09247114,2.005826956,2.291347801
1712146.515,-10.97864328,1.962713436,2.135671807
1712156.281,-10.63214006,2.043412187,2.170609352
1712166.046,-10.67038372,1.843847937,2.192396858
1712175.812,-11.2892776,2.036829414,1.841470695
1712185.577,-15.17726811,3.630079164,1.503958193
1712195.343,-14.09974863,3.191271972,1.563598583
1712205.109,-10.48760004,1.704799919,1.239995968
1712214.874,-12.6811528,2.262309786,1.115489288
1712224.64,-12.53141169,2.334099695,0.704984764
1712234.406,-12.76274042,2.452980701,0.649035069
1712244.171,-11.88198305,2.005264668,0.26323339
1712253.937,-10.11603328,1.118702674,-0.06486629
1712263.702,-9.040799857,0.555323362,-0.233831887
1712273.468,-8.38841587,0.112399029,-0.380048537
1712283.234,-7.698731673,-0.37284796,-0.642398021
1712292.999,-6.739612167,-1.017685872,-0.884293612
1712302.765,-6.74212401,-1.302709559,-1.135477968
1712312.531,-7.011200484,-1.102400968,-1.120048382
1712322.296,-8.166457165,-0.665222023,-1.261101161
1712332.062,-9.203672707,-0.062730029,-1.136501438
1712341.827,-9.666733347,0.174225613,-1.288719344
1712351.593,-9.39658037,0.09607003,-1.196498492
1712361.359,-9.667987253,0.211717801,-1.41410993
1712371.124,-10.01363572,0.452728556,-1.363572221
1712380.89,-9.898642662,0.451945446,-1.402727703
1712390.656,-10.01242617,0.455147667,-1.242616672
1712400.421,-10.16736433,0.332963644,-1.351817822
1712410.187,-9.63050561,0.369758011,-1.512099432
1712419.952,-9.667672769,0.29234677,-1.382661487
1712429.718,-9.894030223,0.301170322,-0.941483876
1712439.484,-10.12634272,0.578083785,-1.095810751
1712449.249,-10.1610948,0.145502702,-0.724864894
1712459.015,-9.929181457,0.227790933,-0.610453351
1712468.781,-9.96585673,0.071363464,-0.431826816
1712478.546,-9.849250928,0.073805835,-0.309708234
1712488.312,-9.501134966,0.157730068,-0.113496623
1712498.077,-9.461415645,0.120245633,0.01228164
1712507.843,-9.615232956,0.080303319,0.015165965
1712517.609,-9.26922162,0.240018298,0.00091492
1712527.374,-9.459577121,0.283922681,0.196134075
1712537.14,-9.575553953,0.442738248,0.136912377
1712546.906,-9.537265939,0.602391198,0.119559908
1712556.671,-9.421736643,0.482680561,0.134028052
1712566.437,-9.306654881,0.402074853,0.103742644
1712576.202,-8.998484024,0.363031952,0.151597621
1712585.968,-8.883849798,0.321531173,0.07655866
1712595.734,-8.844533662,0.283240368,0.162018407
1712605.499,-8.807052019,0.441280578,0.064028905
1712615.265,-9.000854753,0.678290495,-0.085475255
1712625.031,-9.039275817,0.638371442,-0.081427896
1712634.796,-9.116521132,0.557726966,-0.113651695
1712644.562,-9.38662976,0.59597125,-0.20143751
1712654.327,-8.963332791,0.436411342,-0.179432905
1712664.093,-9.346777388,0.438752917,-0.062354136
1712673.859,-9.502429191,0.595141619,-0.242919061
1712683.624,-10.23094167,0.679655122,-0.017243919
1712693.39,-10.84871469,0.954878308,-0.256084607
1712703.156,-11.15634528,1.235001745,-0.249912772
1712712.921,-11.00020159,0.999596815,-0.020159258
1712722.687,-10.84683182,1.078644057,-0.067797136
1712732.452,-11.1541076,1.0394771,-0.026145007
1712742.218,-13.50151396,2.316972079,-0.151396029
1712751.984,-16.69363944,3.317336497,-0.133175161
1712761.749,-12.26825398,1.641953587,0.097679359
1712771.515,-11.53638296,1.444157149,0.207857459
1712781.281,-13.34483404,1.962639622,0.131981112
1712791.046,-14.07647926,2.320887628,0.044381382
1712800.812,-13.95785754,2.327361851,0.368092547
1712810.577,-12.07046374,1.452918673,0.645933645
1712820.343,-10.41310042,0.619953013,0.997650671
1712830.109,-9.258424321,0.341612896,1.080644786
1712839.874,-8.94438712,0.114302684,1.715134175
1712849.64,-8.632676297,0.162339715,2.116985726
1712859.406,-8.090261683,0.290245865,2.512293271
1712869.171,-7.510905693,0.33511169,2.755584502
1712878.937,-7.586715669,0.417337892,2.866894621
1712888.702,-8.431426733,0.860223458,3.011172881
1712898.468,-9.356693261,1.655844246,2.792212324
1712908.234,-10.08914889,1.652471448,2.623572376
1712917.999,-9.857054112,1.935122545,2.756127251
1712927.765,-9.087749839,1.575269553,2.763477627
1712937.531,-8.781324773,1.652735069,2.636753429
1712947.296,-9.318046413,1.856214867,2.810743334
1712957.062,-9.245953804,1.84655393,2.327696495
1712966.827,-9.51131291,1.974297256,2.714862801
1712976.593,-9.472492692,1.655014615,2.750730773
1712986.359,-9.281238089,1.892908438,2.64542191
1712996.124,-9.432995123,1.817086677,2.854333853
1713005.89,-9.62612857,1.815435169,2.77175843
1713015.656,-9.859247439,2.09073589,2.536794523
1713025.421,-10.08717328,2.056422662,2.821133105
1713035.187,-9.898386174,1.969381498,2.469074923
1713044.952,-9.85907407,1.57108263,2.554131485
1713054.718,-9.781203818,1.45297698,2.648848984
1713064.484,-9.43645042,1.290176083,2.508804168
1713074.249,-9.322445163,1.087417366,2.370868321
1713084.015,-9.051755949,0.890334256,2.5167128
1713093.781,-9.164777434,0.935060517,2.753025827
1713103.546,-9.129630233,0.648431842,2.421592116
1713113.312,-9.016741799,0.72343948,2.171973979
1713123.077,-9.285282036,0.804820544,2.241027192
1713132.843,-9.208036721,0.88546502,2.273250991
1713142.609,-9.055203182,1.08343979,2.171989486
1713152.374,-8.862472921,1.084284928,2.214246393
1713162.14,-8.668041218,1.008532949,2.426647438
1713171.906,-8.824051856,1.124203981,2.210199034
1713181.671,-8.939669853,1.323737216,2.186860816
1713191.437,-9.287201197,1.440982221,2.049111054
1713201.202,-9.287963217,1.399458181,1.972909058
1713210.968,-9.286616579,1.642151458,2.107572903
1713220.734,-9.440881425,1.641314073,2.065703674
1713230.499,-9.633970521,1.599751266,1.987563288
1713240.265,-9.905195971,1.915761904,1.788095183
1713250.031,-10.44433672,2.11440348,1.72017399
1713259.796,-10.79092864,2.113527327,1.676366371
1713269.562,-11.02046723,2.075988618,1.799430889
1713279.327,-11.0602309,2.153384352,1.669217588
1713289.093,-10.90551852,2.115116807,1.75584037
1713298.859,-10.94739085,1.908295225,1.414761229
1713308.624,-10.71557024,1.71039799,1.519899514
1713318.39,-12.06364588,2.226554395,1.327719755
1713328.156,-16.98916641,4.341667171,1.083358532
1713337.921,-12.45242058,2.298235755,0.911787739
1713347.687,-10.79809728,2.019190063,0.959503152
1713357.452,-12.25807758,2.302306374,1.11531871
1713367.218,-11.87754398,2.374142805,0.707140254
1713376.984,-12.95743822,2.768200476,0.410023803
1713386.749,-12.34481791,2.402671877,0.133593853
1713396.515,-10.50104223,1.437915533,-0.104223365
1713406.281,-9.386403976,0.756422817,-0.178859141
1713416.046,-8.426203934,0.593745978,-0.312701108
1713425.812,-7.660129174,-0.132566041,-0.628302048
1713435.577,-7.122468113,-0.454166996,-0.70834981
1713445.343,-7.125649244,-0.500529258,-1.026462903
1713455.109,-8.052125329,0.29267242,-1.36637901
1713464.874,-8.74665178,0.408234902,-1.588254906
1713474.64,-9.169589914,0.608512479,-1.574376032
1713484.406,-9.13282594,0.68511735,-1.744132493
1713494.171,-9.172633962,0.802424383,-1.87878083
1713503.937,-9.211188078,0.882239228,-1.888038582
1713513.702,-9.520745893,1.078508215,-2.074589255
1713523.468,-9.751356951,1.27882456,-2.058771991
1713533.234,-9.751090848,1.039356765,-2.03216177
1713542.999,-9.789556264,1.039349011,-2.032549448
1713552.765,-9.749207974,1.163122514,-1.843874299
1713562.531,-9.789419181,1.279623177,-2.018841153
1713572.296,-9.825913021,1.323558574,-1.822071286
1713582.062,-9.594717344,1.324411466,-1.779426702
1713591.827,-9.785879215,1.366703108,-1.66484458
1713601.593,-9.475652113,0.931772697,-1.411365169
1713611.359,-9.437138316,1.251877215,-1.406139269
1713621.124,-9.281708265,1.295045009,-1.247749529
1713630.89,-9.203297744,1.418019896,-1.099005218
1713640.656,-9.202580075,1.499455235,-1.027238259
1713650.421,-9.200519799,1.463575787,-0.821210641
1713660.187,-9.084091399,1.625663356,-0.716832205
1713669.952,-9.199802129,1.545011126,-0.749443682
1713679.718,-9.122468113,1.545833004,-0.70834981
1713689.484,-9.044730913,1.547461252,-0.626937421
1713699.249,-8.737007591,1.54752328,-0.623835997
1713709.015,-8.542890372,1.391142332,-0.442883394
1713718.781,-8.621522644,1.467723942,-0.613802889
1713728.546,-8.890554767,1.628121235,-0.593938266
1713738.312,-9.276241074,1.465979391,-0.701030448
1713748.077,-9.31407752,1.627229575,-0.638521241
1713757.843,-9.430014034,1.386125778,-0.693711087
1713767.609,-9.047956394,1.541010289,-0.949485551
1713777.374,-9.276329774,1.54580199,-0.709900522
1713787.14,-9.279289154,1.299883231,-1.005838431
1713796.906,-9.355861149,1.340585394,-0.970730308
1713806.671,-9.738680809,1.144176843,-0.791157839
1713816.437,-9.818208152,1.298968311,-1.05158444
1713826.202,-10.24078745,1.539963558,-1.001822087
1713835.968,-10.43544494,1.45526397,-1.236801501
1713845.734,-10.70425531,1.416104766,-1.194761694
1713855.499,-10.51318214,1.453635722,-1.31821389
1713865.265,-10.43477565,1.216602545,-1.169872764
1713875.031,-10.4375536,1.171046653,-1.447667341
1713884.796,-10.35694975,1.138408194,-1.079590302
1713894.562,-10.12808448,1.054600265,-1.269986741
1713904.327,-10.31696433,0.861455964,-0.927201817
1713914.093,-12.27855939,1.461342762,-0.932861917
1713923.859,-16.43606988,3.654014096,-1.299295201
1713933.624,-13.27891822,2.420625092,-0.968745396
1713943.39,-10.31557334,1.064237941,-0.788102936
1713953.156,-11.73596737,1.429603716,-0.519814225
1713962.921,-13.66187093,2.343950439,-0.802478038
1713972.687,-13.62259512,2.705578997,-0.721050142
1713982.452,-11.04045312,1.516016841,-0.199157963
1713992.218,-9.307993456,0.879397703,-0.03011483
1714001.984,-8.803241919,0.648900778,0.445038884
1714011.749,-8.37694122,0.695348329,0.767416436
1714021.515,-7.833857319,0.584593054,1.229652718
1714031.281,-7.331476511,0.669354671,1.467733557
1714041.046,-7.75020136,1.078058819,1.902940926
1714050.812,-8.748951486,1.680558567,2.027928326
1714060.577,-9.941641429,2.279794065,1.989703271
1714070.343,-10.70973615,2.642066169,2.103308444
1714080.109,-10.40111372,2.923926403,2.19632016
1714089.874,-10.36215642,2.844917929,2.245896428
1714099.64,-10.32404984,2.804208013,2.210400626
1714109.406,-10.59259008,2.885589077,2.279453839
1714119.171,-10.28419747,2.64698968,2.349484001
1714128.937,-9.707619424,2.646299613,2.314980655
1714138.702,-9.397210889,2.411732068,2.586603398
1714148.468,-9.091951029,2.446867174,2.343358687
1714158.234,-9.169285044,2.446045296,2.302264815
1714167.999,-9.32121948,2.529868732,2.493436611
1714177.765,-9.476645499,2.846709001,2.335450055
1714187.531,-9.671036884,2.522541617,2.127080862
1714197.296,-9.634587394,2.518517519,1.925875959
1714207.062,-9.789973095,2.435438425,1.771921255
1714216.827,-9.635397796,2.156896715,1.844835741
1714226.593,-9.174171648,2.116272088,1.813604398
1714236.359,-8.90706675,1.872020345,1.601017267
1714246.124,-8.714114737,1.673308987,1.665449358
1714255.89,-8.563345506,1.547155141,1.35775705
1714265.656,-8.67852,1.347575384,1.3787692
1714275.421,-8.718283672,1.424971118,1.248555899
1714285.187,-8.950192986,1.702690951,1.134547541
1714294.952,-9.105086801,1.540595629,1.029781427
1714304.718,-9.067335024,1.819176107,0.958805331
1714314.484,-9.145431059,1.776830189,0.841509463
1714324.249,-8.761942112,1.734577315,0.728865732
1714334.015,-9.029272794,1.81837749,0.918874493
1714343.781,-9.144894823,1.657902662,0.89513309
1714353.546,-9.492470517,1.815058966,0.752948292
1714363.312,-9.222180456,1.977177549,0.858877439
1714373.077,-9.25894443,1.900572678,1.0286339
1714382.843,-9.490365891,1.739268219,0.963410946
1714392.609,-9.299155637,2.017073341,0.853667047
1714402.374,-9.798669799,1.898045017,0.902250859
1714412.14,-9.874258023,1.780714723,1.035736162
1714421.906,-10.29836136,1.93866189,0.933094524
1714431.671,-10.60608468,1.938599862,0.929993099
1714441.437,-10.87731013,2.2546105,0.730524994
1714451.202,-11.80075023,2.133884146,0.694207315
1714460.968,-15.69102277,3.96256984,0.12849201
1714470.734,-16.11517046,4.160428307,0.021415335
1714480.499,-12.15607112,2.715550076,-0.222496181
1714490.265,-13.00343111,2.633137789,-0.343110574
1714500.031,-12.65975018,2.708191947,-0.590402642
1714509.796,-13.2382998,2.664938863,-0.753056841
1714519.562,-13.81653493,2.702314748,-0.884262598
1714529.327,-12.24040443,1.74072961,-0.963519496
1714539.093,-10.81813558,0.779113458,-1.044327107
1714548.859,-9.860269979,0.171767734,-1.411613283
1714558.624,-9.590076683,-0.306307212,-1.315360579
1714568.39,-8.63364239,-0.71651555,-1.825777488
1714578.156,-7.481836974,-1.320597024,-2.029851209
1714587.921,-6.710246641,-1.555877897,-1.793894846
1714597.687,-6.212349251,-1.800083118,-2.004155909
1714607.452,-6.364461089,-1.556614485,-1.83072426
1714617.218,-7.209083452,-1.193551519,-1.677575927
1714626.984,-8.40074124,-0.432251712,-1.61258558
1714636.749,-9.094904825,0.084036504,-1.798174812
1714646.515,-9.249214022,0.123110418,-1.844479077
1714656.281,-8.941893885,0.122366077,-1.881696169
1714666.046,-8.940369845,0.205414156,-1.729292177
1714675.812,-9.479196111,0.484684701,-1.765764928
1714685.577,-9.863402728,0.445502237,-1.724888155
1714695.343,-10.17045273,0.566786847,-1.660657657
1714705.109,-9.671748971,0.324194366,-1.790281687
1714714.874,-9.900525536,0.328179697,-1.591015174
1714724.64,-10.13158816,0.207592907,-1.620354648
1714734.406,-10.5127467,0.334506602,-1.274669892
1714744.171,-10.43572717,0.254699511,-1.265024462
1714753.937,-10.47414823,0.214780458,-1.260977104
1714763.702,-10.39475394,0.179722888,-1.013855613
1714773.468,-9.893719771,0.021791228,-0.910438619
1714783.234,-9.853911749,-0.095515806,-0.775790282
1714792.999,-9.738201019,-0.014863576,-0.743178805
1714802.765,-9.661177456,0.265337396,-0.73313019
1714812.531,-9.621502485,0.267764261,-0.611786963
1714822.296,-9.467906926,0.507263071,-0.636846472
1714832.062,-9.545688477,0.545546122,-0.722693897
1714841.827,-9.506864227,0.586271545,-0.68642274
1714851.593,-9.2755355,0.467390539,-0.630473045
1714861.359,-9.082893939,0.548058276,-0.597086212
1714871.124,-9.121585138,0.387598955,-0.620052259
1714880.89,-9.007487148,0.465025703,-0.748714847
1714890.656,-8.777097842,0.464265854,-0.786707295
1714900.421,-8.624268335,0.30223256,-0.888371985
1714910.187,-8.740648353,0.460241756,-0.987912199
1714919.952,-9.047520954,0.421881169,-0.905941554
1714929.718,-8.930064432,0.386024982,-0.698750901
1714939.484,-9.125709722,0.099349786,-1.032510681
1714949.249,-8.894558396,0.140113977,-0.994301133
1714959.015,-8.893840726,0.221549317,-0.922534174
1714968.781,-8.855375311,0.22155707,-0.922146496
1714978.546,-9.394161259,0.100908252,-0.954587394
1714988.312,-10.04878696,0.379349166,-1.032541695
1714998.077,-10.12441953,0.301930171,-0.903491428
1715007.843,-10.39515713,0.178916517,-1.054174129
1715017.609,-10.62478038,0.58120847,-0.939576501
1715027.374,-10.54668838,0.263546324,-0.822683818
1715037.14,-10.31490808,0.465568452,-0.721577384
1715046.906,-10.50580385,0.268392299,-0.580385042
1715056.671,-10.46541121,0.352254503,-0.387274856
1715066.437,-10.4658144,0.351448133,-0.427593372
1715076.202,-14.35273243,1.706842828,-0.657858622
1715085.968,-18.16065533,3.386381646,-0.680917711
1715095.734,-11.04342056,0.550081955,-0.495902243
1715105.499,-11.81290627,0.709572081,-0.521395951
1715115.265,-13.07961604,1.234614067,-0.269296674
1715125.031,-13.00340288,1.153194234,-0.340288277
1715134.796,-13.73070581,1.240126848,0.006342413
1715144.562,-11.88262412,0.763982539,0.199126949
1715154.327,-10.26412939,-0.069797244,0.510137781
1715164.093,-9.79708125,-0.258777884,1.061105813
1715173.859,-9.023962845,-0.051002613,1.449869353
1715183.624,-7.983025905,-0.366051809,1.697409535
1715193.39,-7.826160514,-0.160013336,1.999333194
1715203.156,-8.13025517,-0.152818032,2.359098416
1715212.921,-9.207145682,0.447247098,2.362354911
1715222.687,-10.01647973,1.12396362,2.198181015
1715232.452,-10.32138075,1.129546184,2.477309204
1715242.218,-10.20629496,1.40894854,2.447426981
1715251.984,-10.09027378,1.210221674,2.511083715
1715261.749,-10.12931978,1.369052747,2.452637374
1715271.515,-10.0913906,1.487988029,2.399401425
1715281.281,-10.09183814,1.527092957,2.354647872
1715291.046,-9.707724252,1.286089957,2.304497841
1715300.812,-9.593178727,1.324411776,2.220588805
1715310.577,-9.245917518,1.086626503,2.331325161
1715320.343,-9.438917913,0.965241097,2.262054849
1715330.109,-9.518086421,1.160750235,2.037511727
1715339.874,-9.903413893,1.03932606,1.966303025
1715349.64,-9.711490002,1.038558458,1.927922899
1715359.406,-9.711401301,0.958735859,1.936792972
1715369.171,-9.752511611,0.793438317,1.671915827
1715378.937,-9.637115365,0.793461577,1.673078861
1715388.702,-9.404669815,0.396814217,1.840710846
1715398.468,-9.291067743,0.19324913,1.662456483
1715408.234,-9.021588084,-0.006253092,1.687345413
1715417.999,-9.136714196,0.114263916,1.713195785
1715427.765,-9.251529855,-0.044598172,1.770091414
1715437.531,-9.561357804,0.031130547,1.556527335
1715447.296,-9.330476611,-0.04864553,1.567723477
1715457.062,-9.408479914,0.189194017,1.459700868
1715466.827,-9.407270359,0.191613128,1.580656416
1715476.593,-9.254662604,0.229136331,1.456816543
1715486.359,-9.177461639,0.349692106,1.484605305
1715496.124,-9.101337179,0.348094873,1.404743629
1715505.89,-9.100438076,0.629893078,1.49465392
1715515.656,-9.255017407,0.548426725,1.421336249
1715525.421,-9.293212688,0.66895924,1.447961977
1715535.187,-9.026103758,0.784715561,1.235778031
1715544.952,-9.253449016,0.591563506,1.578175277
1715554.718,-9.371486125,0.786258519,1.312925961
1715564.484,-9.601560947,0.867647337,1.382366852
1715574.249,-10.13980663,0.988079055,1.403952765
1715584.015,-10.60296,0.944849232,1.2424616
1715593.781,-11.02751087,1.141901328,1.095066409
1715603.546,-11.18007428,1.064466826,1.22334132
1715613.312,-11.29712762,1.101129384,1.056469183
1715623.077,-11.10251851,0.865732208,1.286610376
1715632.843,-11.33326665,0.825774387,1.288719344
1715642.609,-12.02752297,1.061877137,1.093856854
1715652.374,-16.22440201,2.612734448,0.636722415
1715662.14,-14.3767235,2.135783769,0.789188435
1715671.906,-9.839078567,0.374150559,0.707527932
1715681.671,-12.68792631,1.448762764,0.438138215
1715691.437,-13.49699829,1.526003427,0.300171354
1715701.202,-14.49875617,1.562487652,0.124382623
1715710.968,-13.34560412,1.201099455,0.054972746
1715720.734,-10.99927427,-0.198548533,0.072573329
1715730.499,-9.925250401,-0.764346956,-0.217347817
1715740.265,-9.081837594,-1.129829034,-0.491451699
1715750.031,-8.659169594,-1.45064688,-0.532343979
1715759.796,-7.969126561,-1.8951762,-0.758809983
1715769.562,-7.27684182,-2.175222101,-0.761105037
1715779.327,-7.045557442,-2.254191808,-0.709590379
1715789.093,-7.779843533,-1.701225528,-1.061276391
1715798.859,-8.742503005,-1.143467547,-1.173377374
1715808.624,-9.510371938,-0.620743877,-1.037193831
1715818.39,-9.43594892,-0.545743993,-1.287199646
1715828.156,-9.628453397,-0.386137564,-1.306878184
1715837.921,-9.859334589,-0.306361487,-1.318074326
1715847.687,-9.592540144,-0.271234134,-1.561706714
1715857.452,-9.743623859,-0.225709257,-1.285462849
1715867.218,-9.513819171,-0.427638343,-1.381917145
1715876.984,-9.282131609,-0.505801679,-1.290083971
1715886.749,-9.203765439,-0.342915494,-1.145774697
1715896.515,-9.398511626,-0.347792484,-1.389624185
1715906.281,-9.782089274,-0.225717011,-1.285850527
1715916.046,-9.66351593,-0.539339552,-0.966977584
1715925.812,-9.623216022,-0.735662813,-0.783140657
1715935.577,-9.661145201,-0.854598094,-0.729904709
1715945.343,-9.502804153,-0.885608306,-0.280415281
1715955.109,-9.659310708,-1.050929109,-0.54645546
1715964.874,-9.924044878,-1.121935909,-0.096795453
1715974.64,-9.654782939,-0.76187357,-0.093678522
1715984.406,-9.576686903,-0.719527653,0.023617346
1715994.171,-9.882886185,-0.636541602,0.172919913
1716003.937,-9.69140983,-0.598204275,0.089786234
1716013.702,-9.76748994,-0.636518341,0.174082948
1716023.468,-9.574715328,-0.675584502,0.220774891
1716033.234,-9.344950959,-0.477594225,0.120288743
1716042.999,-9.615236988,-0.279704744,0.01476278
1716052.765,-9.30854582,-0.441707024,-0.085351198
1716062.531,-9.269318384,-0.40017523,-0.008761524
1716072.296,-9.310247261,-0.365109907,-0.255495336
1716082.062,-9.193105224,-0.481595063,-0.079753127
1716091.827,-9.155313128,-0.602933947,-0.146697371
1716101.593,-9.580581672,-0.48731719,-0.365859521
1716111.359,-9.157816907,-0.167941507,-0.397075357
1716121.124,-9.043589899,-0.57025672,-0.51283602
1716130.89,-9.197048374,-0.569481364,-0.474068216
1716140.656,-9.736370558,-0.571202655,-0.560132741
1716150.421,-10.08313988,-0.41243361,-0.621680507
1716160.187,-10.15841362,-0.449134935,-0.456746761
1716169.952,-10.58140014,-0.568954122,-0.447706109
1716179.718,-10.31308165,-0.45077869,-0.538934506
1716189.484,-10.5809526,-0.608059051,-0.402952556
1716199.249,-10.73387484,-0.726211223,-0.310561125
1716209.015,-10.61959945,-0.808429671,-0.421483566
1716218.781,-11.08225691,-0.570667659,-0.533382956
1716228.546,-12.19336326,-0.52211114,-0.105556977
1716238.312,-14.73551581,0.75050685,-0.474657486
1716248.077,-15.57964628,1.034553589,-0.272320563
1716257.843,-12.53847549,-0.400027913,-0.001395641
1716267.609,-13.23358253,-0.125626604,-0.281330201
1716277.374,-14.0792814,0.115283354,-0.235832306
1716287.14,-13.49957061,-0.159141216,0.04293922
1716296.906,-12.03493351,-0.63294395,0.352802525
1716306.671,-11.03237329,-1.027823498,0.608825103
1716316.437,-9.60799175,-1.34521427,0.739286517
1716326.202,-8.485330108,-1.610660216,1.466989215
1716335.968,-8.174562738,-1.804510091,1.774495437
1716345.734,-7.443494065,-1.643911206,1.804439689
1716355.499,-7.32365875,-1.275009808,2.249509587
1716365.265,-8.285193335,-0.275002055,2.249897265
1716375.031,-9.784933281,0.445518054,2.275902708
1716384.796,-10.28609647,1.083191676,2.159583789
1716394.562,-10.1728492,1.198916983,1.945849131
1716404.327,-10.09394276,1.602883704,2.144185217
1716414.093,-10.0974787,1.875811837,1.790591829
1716423.859,-10.06165818,1.710529801,1.526490041
1716433.624,-9.790787529,1.713809557,1.690477852
1716443.39,-9.178074481,1.628466423,1.42332116
1716453.156,-8.715864561,1.42980934,1.490466997
1716462.921,-8.485297853,1.269404294,1.470214696
1716472.687,-8.447191273,1.228694378,1.434718895
1716482.452,-9.061924279,0.949997596,1.49987982
1716492.218,-9.486160669,1.227678661,1.383933071
1716501.984,-9.562958449,1.107929257,1.396462826
1716511.749,-9.561301358,1.071243439,1.562171927
1716521.515,-9.599722423,1.031324386,1.566219286
1716531.281,-9.602189916,0.706389399,1.319469967
1716541.046,-9.407000225,0.312153396,1.607669822
1716550.812,-9.252066091,0.074329356,1.716467788
1716560.577,-9.288475262,-0.321565909,1.921704543
1716570.343,-9.328779202,-0.485250711,1.737464431
1716580.109,-9.330121808,-0.367935925,1.603203771
1716589.874,-9.482015926,-0.684031852,1.798407419
1716599.64,-9.637712079,-0.487731851,1.613407457
1716609.406,-9.94449598,-0.605915036,1.704248176
1716619.171,-9.90728447,-0.568415095,1.579245268
1716628.937,-9.755616137,-0.412770735,1.361463252
1716638.702,-9.792646213,-0.24990781,1.504609492
1716648.468,-9.524863964,-0.012804851,1.359757469
1716658.234,-9.60067394,0.069421352,1.471067588
1716667.999,-9.484963209,0.150073581,1.503679065
1716677.765,-9.524412396,0.308098284,1.404914207
1716687.531,-9.600895691,0.268977848,1.448892404
1716697.296,-9.679705365,0.505204655,1.260232762
1716707.062,-9.988501159,0.742997682,1.149884084
1716716.827,-10.17894536,0.866724663,1.336233165
1716726.593,-10.48792259,0.904154823,1.207741155
1716736.359,-10.45017484,0.822727237,1.136361874
1716746.124,-10.87159297,0.746044831,1.302241554
1716755.89,-11.10390547,1.022958294,1.14791468
1716765.656,-11.06682701,1.180192133,1.009606662
1716775.421,-11.21813651,1.065265443,1.263272158
1716785.187,-10.87243966,1.144351453,1.21757267
1716794.952,-11.1029217,0.864925837,1.24629186
1716804.718,-12.60257294,1.505623348,1.281167376
1716814.484,-20.22330534,4.534927776,0.746388779
1716824.249,-11.87320974,1.382811286,1.140564304
1716834.015,-9.682975196,0.538664992,0.933249595
1716843.781,-13.29709939,1.62118583,1.05929148
1716853.546,-12.95418049,1.654715948,0.735797415
1716863.312,-14.11096524,1.648838749,0.44193746
1716873.077,-11.60938274,0.452003753,0.600187636
1716882.843,-9.956724586,-0.510372248,0.481387577
1716892.609,-8.95797446,-1.112871996,0.356400177
1716902.374,-8.110803967,-1.950838703,0.458064866
1716912.14,-7.345575896,-2.278844099,0.057795042
1716921.906,-7.230228032,-2.598917603,0.054119855
1716931.671,-8.079241081,-2.284636009,-0.231800454
1716941.437,-9.236287905,-1.691037349,-0.551867445
1716951.202,-10.00591069,-1.771821389,-0.591069449
1716960.968,-9.893514146,-1.617797524,-0.889876176
1716970.734,-9.511460538,-1.822921077,-1.146053825
1716980.499,-9.281744551,-1.945027564,-1.251378195
1716990.265,-9.322000109,-1.788615602,-1.430780086
1717000.031,-9.359929288,-1.907550883,-1.377544137
1717009.796,-9.401039597,-2.072848426,-1.642421282
1717019.562,-9.131555907,-1.912342583,-1.617129167
1717029.327,-9.248206059,-1.874873656,-1.743682786
1717039.093,-9.285953804,-1.79344607,-1.672303505
1717048.859,-9.361183193,-1.870058694,-1.502934723
1717058.624,-9.398394703,-1.907558636,-1.377931815
1717068.39,-9.360332473,-1.908357253,-1.417862653
1717078.156,-9.397543982,-1.945857195,-1.292859746
1717087.921,-9.472906422,-1.902735921,-1.136796074
1717097.687,-9.279724594,-1.580987649,-1.049382429
1717107.452,-9.508948695,-1.537897389,-0.894869469
1717117.218,-9.81702682,-1.218669024,-0.933451187
1717126.984,-9.892925496,-1.056620223,-0.831011142
1717136.749,-9.816934087,-0.938483559,-0.924177929
1717146.515,-9.929818489,-0.653483132,-0.674156606
1717156.281,-9.738745319,-0.615952176,-0.797608802
1717166.046,-9.584254689,-0.454663224,-0.733161204
1717175.812,-9.623389392,-0.216009552,-0.800477619
1717185.577,-9.54551914,-0.334115202,-0.70576012
1717195.343,-9.431465501,-0.216777155,-0.838857745
1717205.109,-9.394342692,-0.099454615,-0.972730727
1717214.874,-9.124907384,-0.259045537,-0.952276833
1717224.64,-8.587734177,-0.1416222,-1.08111
1717234.406,-8.585182015,-0.256517876,-0.825893792
1717244.171,-8.586077086,-0.178308018,-0.915400898
1717253.937,-8.62369178,-0.21661433,-0.830716507
1717263.702,-8.739583944,-0.497629426,-0.881471316
1717273.468,-8.894203593,-0.179176417,-0.958820838
1717283.234,-9.047258884,-0.17759469,-0.879734518
1717292.999,-9.123383344,-0.175997457,-0.799872842
1717302.765,-8.854572973,-0.136838253,-0.841912648
1717312.531,-8.891965915,-0.374701061,-0.735053073
1717322.296,-9.236856396,-0.452174331,-0.608716553
1717332.062,-9.73654796,-0.411557458,-0.577872888
1717341.827,-10.35261954,-0.212931389,-0.646569437
1717351.593,-10.89126841,-0.093306041,-0.66530204
1717361.359,-10.81303932,-0.170694021,-0.534701061
1717371.124,-10.73646732,-0.211396184,-0.569809185
1717380.89,-10.62075659,-0.130743954,-0.537197708
1717390.656,-10.6577907,-0.327889093,-0.394454653
1717400.421,-12.04222713,0.112468811,-0.376559435
1717410.187,-17.20171726,2.541180867,-0.940956634
1717419.952,-14.77433199,1.429797555,-0.510122274
1717429.718,-9.734669117,-0.647799772,-0.389988602
1717439.484,-11.07902739,-0.204208633,-0.210431641
1717449.249,-12.92463756,0.956878727,-0.156063672
1717459.015,-14.7326411,1.436256271,-0.187186465
1717468.781,-13.22690175,0.407734952,0.386747614
1717478.546,-10.6825962,-0.62057702,0.971149
1717488.312,-9.678290185,-1.131964985,1.401750754
1717498.077,-9.288261574,-1.241138533,1.943073356
1717507.843,-9.01223822,-1.147553364,2.622331806
1717517.609,-8.892495639,-1.058837431,3.058128445
1717527.374,-9.160810092,-0.817004799,3.149760027
1717537.14,-9.578325386,-0.405881541,3.705922945
1717546.906,-10.3103738,-0.048439906,3.578004699
1717556.671,-10.69591899,0.38970048,3.485023997
1717566.437,-10.39016321,0.705827421,3.291371062
1717576.202,-9.735670567,0.547120405,3.356020252
1717585.968,-9.197287804,0.666962853,3.348142635
1717595.734,-9.045978306,0.781889543,3.094477139
1717605.499,-8.855578454,0.69807386,2.903693021
1717615.265,-8.896281547,0.893590752,2.679537578
1717625.031,-8.81872578,0.694856133,2.742806634
1717634.796,-8.589904864,0.650959503,2.547975158
1717644.562,-8.783397145,0.608590325,2.429516255
1717654.327,-8.743992308,0.490476922,2.523846076
1717664.093,-8.822939065,0.486429563,2.321478139
1717673.859,-9.12927543,0.329141448,2.457072411
1717683.624,-9.01589511,0.325132857,2.256642863
1717693.39,-9.363071651,0.123087468,2.154373396
1717703.156,-9.59288037,-0.03499151,2.250424507
1717712.921,-9.707248494,-0.232958526,2.35207369
1717722.687,-9.554733471,-0.475620789,2.218960558
1717732.452,-9.746971847,-0.555482155,2.225892241
1717742.218,-9.748495887,-0.638530235,2.073488249
1717751.984,-9.977272452,-0.634544905,2.272754763
1717761.749,-10.09302753,-0.675285835,2.235708249
1717771.515,-9.98103417,-0.52206834,1.896583006
1717781.281,-10.25109845,-0.523735355,1.813232227
1717791.046,-10.25288859,-0.36731564,1.634218015
1717800.812,-10.0970997,-0.283430175,1.828491235
1717810.577,-9.637127461,-0.286562614,1.671869306
1717820.343,-9.637933831,-0.288175355,1.591232273
1717830.109,-9.484249572,-0.128499143,1.575042838
1717839.874,-9.250187248,-0.161912959,1.904352074
1717849.64,-9.560865918,-0.047885681,1.605715925
1717859.406,-9.486128414,0.107743171,1.387158553
1717869.171,-9.447884751,0.307307421,1.365371047
1717878.937,-9.331996619,0.228314453,1.415722671
1717888.702,-9.639272406,0.189147496,1.457374799
1717898.468,-9.484737426,0.310525149,1.526257434
1717908.234,-9.292370031,-0.089355446,1.532227676
1717917.999,-9.754354167,0.269753204,1.487660208
1717927.765,-10.14137905,0.584934211,1.246710552
1717937.531,-10.83361944,0.825068813,1.253440643
1717947.296,-10.79408155,0.587221511,1.361075574
1717957.062,-10.64093756,0.505817187,1.290859327
1717966.827,-10.60229474,0.346179743,1.308987152
1717976.593,-10.21652377,0.068490924,1.424546223
1717986.359,-10.83443387,0.103439945,1.17199724
1717996.124,-16.64340909,1.820874136,1.043706822
1718005.89,-15.02621262,1.064497841,1.224892032
1718015.656,-8.49021268,-1.58042536,0.978731983
1718025.421,-12.1058206,-0.980871965,0.956401727
1718035.187,-11.91358222,-0.901010599,0.949470044
1718044.952,-12.18468269,-1.424749986,0.762500678
1718054.718,-12.53360502,-1.510286959,0.485652036
1718064.484,-10.76416366,-2.629865786,0.506710707
1718074.249,-8.995391594,-3.510783187,0.460840641
1718084.015,-8.500046366,-3.640092733,-0.004636629
1718093.781,-8.231506129,-3.721473797,-0.073689842
1718103.546,-8.733568421,-3.365598381,-0.279919053
1718113.312,-9.964949563,-2.926822203,-0.341110155
1718123.077,-10.19856032,-2.572505253,-0.625262652
1718132.843,-9.469152768,-2.735228614,-0.761430687
1718142.609,-9.355058811,-3.017809929,-0.89049646
1718152.374,-9.393524226,-3.017817683,-0.890884139
1718162.14,-9.394153195,-3.17907562,-0.953781024
1718171.906,-9.356224016,-3.060140339,-1.007016973
1718181.671,-9.201378583,-3.218141782,-0.907089081
1718191.437,-9.050964155,-3.025005234,-1.250261683
1718201.202,-9.20352756,-3.102439735,-1.121986772
1718210.968,-9.317040931,-2.978697247,-0.934862336
1718220.734,-9.509545409,-2.819090817,-0.954540873
1718230.499,-9.507706884,-2.655413769,-0.770688439
1718240.265,-9.431042156,-2.415930466,-0.796523303
1718250.031,-9.39011328,-2.45099579,-0.549789491
1718259.796,-9.34980934,-2.287310988,-0.365549379
1718269.562,-9.079430578,-2.205015003,-0.250750157
1718279.327,-9.26991913,-2.041376722,-0.068836113
1718289.093,-9.153805215,-1.959918122,0.00409388
1718298.859,-9.076918735,-1.919991316,0.000434199
1718308.624,-9.153220597,-1.758748885,0.062555729
1718318.39,-9.341604522,-1.670901351,0.454932428
1718328.156,-9.342543943,-1.552780194,0.360990285
1718337.921,-9.420369845,-1.474585844,0.270707823
1718347.687,-9.228087119,-1.434635776,0.268211176
1718357.452,-9.342947128,-1.553586565,0.320671769
1718367.218,-9.189577353,-1.474539322,0.273033891
1718376.984,-8.690829243,-1.757043102,0.147844898
1718386.749,-8.883426454,-1.877622138,0.118893102
1718396.515,-8.767804424,-1.71714731,0.142634505
1718406.281,-8.84594481,-1.719581928,0.0209036
1718416.046,-8.884410225,-1.719589682,0.020515922
1718425.812,-8.999850821,-1.679701643,0.014917851
1718435.577,-8.653307281,-1.998922255,0.053887248
1718445.343,-8.730729998,-1.919921534,0.003923302
1718455.109,-8.962957828,-2.082838734,-0.141936684
1718464.874,-9.30798136,-2.040578105,-0.028905275
1718474.64,-9.769207509,-1.999953479,0.002326068
1718484.406,-9.999866949,-2.119733898,0.01330511
1718494.171,-9.616333651,-2.201898072,-0.094903584
1718503.937,-9.501788126,-2.163576252,-0.17881262
1718513.702,-12.27115691,-1.563852279,-0.192613958
1718523.468,-18.4233131,0.719527653,-0.023617346
1718533.234,-12.61667233,-1.442575423,-0.128771138
1718542.999,-10.49700635,-2.1940127,0.299364983
1718552.765,-12.18948059,-1.834345793,0.282710335
1718562.531,-12.8813178,-1.593404821,0.329758942
1718572.296,-14.45664596,-0.990215006,0.489249688
1718582.062,-12.48873702,-1.817474045,1.126297752
1718591.827,-9.830736666,-2.769165639,1.541718034
1718601.593,-8.555781753,-3.077717352,2.114132415
1718611.359,-8.589767781,-3.108766331,2.561683453
1718621.124,-8.739952393,-2.781443248,2.927837609
1718630.89,-8.697676878,-2.573815295,3.309235266
1718640.656,-9.039116094,-2.484386034,3.780698286
1718650.421,-9.575478899,-2.240188567,3.99057167
1718660.187,-9.845539144,-1.881847518,3.907624076
1718669.952,-10.26691292,-1.998441224,4.077938793
1718679.718,-10.19092151,-1.88030456,3.984772007
1718689.484,-9.614121715,-2.080551123,3.972443845
1718699.249,-9.537279586,-2.000713017,3.964349127
1718709.015,-9.26815473,-1.880924845,3.953757763
1718718.781,-9.19207462,-1.842610779,3.86946105
1718728.546,-8.846200368,-1.923169966,3.84150171
1718738.312,-8.884710133,-1.88326642,3.836678995
1718748.077,-8.730356586,-1.962251634,3.887418297
1718757.843,-8.499072209,-2.041221341,3.938932955
1718767.609,-8.808855807,-2.005403922,3.729803912
1718777.374,-8.961060377,-2.042120754,3.893962302
1718787.14,-9.308994906,-1.92568212,3.715894024
1718796.906,-9.346162065,-2.003093361,3.845331969
1718806.671,-9.269412668,-2.20344072,3.827963992
1718816.437,-8.924792321,-2.246507719,3.674614067
1718826.202,-9.001815884,-2.526708691,3.664565452
1718835.968,-8.963035984,-2.446071969,3.696401572
1718845.734,-8.999622557,-2.682322036,3.88389818
1718855.499,-9.153306816,-2.841998248,3.900087615
1718865.265,-9.038269405,-2.882692657,3.86536717
1718875.031,-8.844240888,-2.959251006,4.037449699
1718884.796,-8.999985423,-3.08304777,3.847611516
1718894.562,-8.961653059,-2.963306118,3.834694083
1718904.327,-9.19392524,-3.086312019,3.68439906
1718914.093,-9.040644166,-2.927442178,3.627891109
1718923.859,-9.154605072,-2.76459476,3.770261993
1718933.624,-9.424133113,-2.885189303,3.740534841
1718943.39,-9.462191311,-2.524382623,3.780868864
1718953.156,-9.502047715,-2.727172354,3.641382305
1718962.921,-9.46506199,-2.850123979,3.493801028
1718972.687,-9.659086475,-2.413557566,3.322121684
1718982.452,-9.69818086,-2.574823258,3.258837121
1718992.218,-9.585469827,-2.340170423,2.991478837
1719001.984,-9.468593892,-2.217187783,3.140610826
1719011.749,-9.853381095,-2.097531421,3.123428935
1719021.515,-9.971196452,-2.102392904,2.880354803
1719031.281,-10.31805448,-1.863801261,2.809936964
1719041.046,-10.70275298,-1.823967497,2.801625146
1719050.812,-10.70391818,-1.866297907,2.685104634
1719060.577,-10.89655975,-1.946965644,2.651717801
1719070.343,-10.62739054,-1.867088771,2.645561474
1719080.109,-10.59067495,-2.110580664,2.470966791
1719089.874,-10.0907576,-1.99074597,2.462701496
1719099.64,-10.24694967,-2.075437805,2.228109759
1719109.406,-12.98076404,-1.401528072,1.923596412
1719119.171,-17.74897568,0.520510184,2.025509215
1719128.937,-8.78876354,-2.562142464,1.892876804
1719138.702,-9.943798469,-2.324520016,1.773999209
1719148.468,-12.71146178,-1.441385096,1.930745195
1719158.234,-11.48402379,-1.968047576,1.597621208
1719167.999,-11.83088181,-1.729455933,1.527203368
1719177.765,-11.6419173,-1.976142293,1.192885333
1719187.531,-9.910937328,-2.73572081,1.213959511
1719197.296,-8.876495701,-3.023760632,0.811968396
1719207.062,-8.684841944,-3.145068503,0.746574865
1719216.827,-8.264274538,-3.030087538,0.495623115
1719226.593,-8.07342312,-2.793000085,0.349995736
1719236.359,-9.152869825,-2.438047343,0.097632838
1719246.124,-9.078487125,-1.963128097,-0.156404829
1719255.89,-9.157655633,-1.767618959,-0.38094795
1719265.656,-8.581972661,-1.690099168,-0.504958402
1719275.421,-8.429006071,-1.611858296,-0.592914796
1719285.187,-8.467427136,-1.651777349,-0.588867437
1719294.952,-8.968102471,-1.453128019,-0.656400952
1719304.718,-9.314424259,-1.333463903,-0.673195165
1719314.484,-9.582787095,-1.411728036,-0.586401805
1719324.249,-9.735931086,-1.330323711,-0.516185558
1719334.015,-9.661596768,-1.175501229,-0.775061447
1719343.781,-9.581396106,-1.208946058,-0.447302924
1719353.546,-9.811337877,-1.247291138,-0.364556923
1719363.312,-9.696929435,-1.449243485,-0.462174254
1719373.077,-9.695090911,-1.285566436,-0.278321819
1719382.843,-9.461746257,-1.400415591,-0.020779543
1719392.609,-9.384638025,-1.560045281,-0.00226404
1719402.374,-9.419922309,-1.513690772,0.315461376
1719412.14,-9.460000465,-1.516924007,0.153799632
1719421.906,-9.265746164,-1.433030789,0.34846053
1719431.671,-9.264177774,-1.389894009,0.505299559
1719441.437,-9.303449559,-1.391514503,0.424274848
1719451.202,-9.495103316,-1.270206632,0.48966838
1719460.968,-9.494607398,-0.989214797,0.539260155
1719470.734,-9.341193273,-0.950078854,0.496057314
1719480.499,-9.302280322,-0.989176029,0.541198545
1719490.265,-9.113670613,-0.916571996,0.171400216
1719500.031,-8.956986656,-0.910896389,0.455180542
1719509.796,-8.57434843,-0.914850705,0.257464741
1719519.562,-8.727492421,-0.83344638,0.327680987
1719529.327,-8.882563637,-0.835896505,0.205174726
1719539.093,-8.998407419,-0.796814837,0.159258139
1719548.859,-8.923492514,-0.800831182,-0.041559086
1719558.624,-9.116045374,-0.961321517,-0.066075845
1719568.39,-9.306671009,-1.037957402,0.102129903
1719578.156,-9.193113287,-1.20161119,-0.080559497
1719587.921,-9.34388655,-1.435465407,0.226729626
1719597.687,-9.731044482,-1.000550503,-0.027525141
1719607.452,-10.46013755,-0.757198173,0.140091337
1719617.218,-10.99878641,-0.637572825,0.121358734
1719626.984,-10.91970661,-0.753259364,0.337031782
1719636.749,-11.19169811,-0.83878083,0.060958495
1719646.515,-10.84676328,-0.80121886,-0.060942988
1719656.281,-10.99811713,-0.876234251,0.188287471
1719666.046,-11.1515756,-0.875458894,0.227055275
1719675.812,-13.0357923,-0.314661518,0.266924085
1719685.577,-17.76728432,1.723892908,0.194645391
1719695.343,-11.72725857,-0.952978685,0.351065727
1719705.109,-10.84219922,-1.272090748,0.395462616
1719714.874,-14.37889667,0.091437433,0.571871632
1719724.64,-14.53270995,0.411503183,0.575159142
1719734.406,-13.29900243,-0.302620238,0.868988083
1719744.171,-11.06398859,-1.37413102,1.293449016
1719753.937,-9.484132648,-1.688265296,1.586735208
1719763.702,-8.823999442,-2.195691191,2.215440441
1719773.468,-8.129335908,-2.070979507,2.451024633
1719783.234,-7.394820001,-2.103486156,2.825692199
1719792.999,-7.31475239,-2.017197088,3.140145612
1719802.765,-8.121574593,-1.055456879,3.227156071
1719812.531,-9.236305583,-0.654149628,3.292518589
1719822.296,-10.04308747,-0.092328782,3.3835609
1719832.062,-10.1202844,0.147123506,3.356175324
1719841.827,-9.926433284,0.230210354,3.510517705
1719851.593,-9.967628263,0.504743473,3.237173672
1719861.359,-10.35331054,0.702609694,3.130484675
1719871.124,-10.16111651,0.822382359,3.119117955
1719880.89,-9.701547456,0.81844355,2.92217751
1719890.656,-9.624217472,0.459257364,2.962868197
1719900.421,-9.395041753,0.09607034,2.803517015
1719910.187,-9.201505121,0.098528219,2.926410954
1719919.952,-9.318828592,0.014650508,2.732525412
1719929.718,-9.587638963,-0.024508696,2.774565219
1719939.484,-9.55020167,0.173442814,2.672140681
1719949.249,-9.743379467,0.211702604,2.585130221
1719959.015,-9.514155366,0.168612345,2.430617261
1719968.781,-9.628479139,-0.06926597,2.53670148
1719978.546,-9.62937421,0.008943887,2.447194374
1719988.312,-9.245752212,-0.153042885,2.347855753
1719998.077,-9.168196444,-0.351777504,2.411124809
1720007.843,-9.131746955,-0.355801602,2.209919906
1720017.609,-8.900910113,-0.39566638,2.216681011
1720027.374,-9.133182294,-0.51867228,2.066385988
1720037.14,-9.173929737,-0.28324409,1.837795508
1720046.906,-9.17249843,-0.480381475,1.98092624
1720056.671,-9.287535841,-0.439687066,2.015646686
1720066.437,-8.67325037,-0.121885356,1.905732208
1720076.202,-8.594976933,-0.239184636,2.040768223
1720085.968,-8.519836245,-0.082749413,1.862529367
1720095.734,-8.865621797,-0.082012824,1.899358781
1720105.499,-9.171506594,0.081602196,2.08010979
1720115.265,-9.097531111,0.195707008,1.785350422
1720125.031,-9.404133578,0.277886689,1.894334473
1720134.796,-9.325993192,0.280321308,2.016065378
1720144.562,-9.67141991,0.321775565,2.088778271
1720154.327,-10.01675389,0.643415288,2.170764424
1720164.093,-10.32501345,0.762280787,2.114039373
1720173.859,-11.09409597,0.922577284,2.128864181
1720183.624,-11.0574207,1.079004753,1.950237647
1720193.39,-11.17281695,1.078981492,1.949074613
1720203.156,-11.05836415,0.837117846,1.855892319
1720212.921,-10.82524528,0.561817125,2.090856226
1720222.687,-10.78709838,0.121187846,2.059392276
1720232.452,-12.595239,0.360291224,2.014561187
1720242.218,-18.71448567,2.552567126,1.628356323
1720251.984,-11.63553891,-0.443385515,1.83072426
1720261.749,-10.60239957,-1.014029913,1.298504338
1720271.515,-13.40982655,-0.05349926,1.325037023
1720281.281,-13.02777294,-0.258622813,1.068859374
1720291.046,-15.1863559,0.171903577,0.595178836
1720300.812,-12.1107959,-1.230822575,0.458871237
1720310.577,-10.11262233,-2.314475433,0.276228358
1720320.343,-9.116238903,-2.241708575,-0.085428733
1720330.109,-8.849851674,-2.567395656,-0.369782823
1720339.874,-7.965372908,-2.727668892,-0.383444597
1720349.64,-7.584032937,-2.65421972,-0.71098602
1720359.406,-8.008761214,-2.297522427,-0.876121359
1720369.171,-8.932685136,-1.619216425,-0.960821257
1720378.937,-8.820062804,-1.304740992,-1.237049615
1720388.702,-9.013236569,-0.906473138,-1.323656889
1720398.468,-8.898646693,-0.908062618,-1.403130888
1720408.234,-9.28145829,-0.384455041,-1.222752049
1720417.999,-9.513593388,-0.267186776,-1.359338776
1720427.765,-9.514754561,0.050490878,-1.475456103
1720437.531,-9.668842006,-0.109991704,-1.499585184
1720447.296,-9.47507959,0.052917742,-1.354112876
1720457.062,-9.205870066,-0.267124747,-1.356237352
1720466.827,-9.204704861,-0.224794337,-1.23971684
1720476.593,-9.474813488,-0.186550053,-1.327502656
1720486.359,-9.434646631,-0.263139417,-1.156970839
1720496.124,-9.35682073,-0.341333768,-1.066688377
1720505.89,-9.2767128,-0.654964062,-0.748203112
1720515.656,-9.160824669,-0.73395703,-0.697851488
1720525.421,-9.197499942,-0.890384499,-0.519224954
1720535.187,-9.120972297,-0.891175362,-0.558768114
1720544.952,-9.195306615,-1.045997845,-0.299892226
1720554.718,-9.19418576,-0.963756135,-0.18780675
1720564.484,-9.308461151,-0.881537686,-0.076884309
